submission_id,N,QUD,RT_keyPress,Y,age,comments,condition,correctness,education,endTime,expected,experiment_id,filler,gender,key1,key2,key_pressed,languages,question,reactionTimes_continuation,reactionTimes_knowledge,reactionTimes_trigger,sentence_continuation,sentence_knowledge,sentence_trigger,startDate,startTime,timeSpent,trial_name,trial_number,underline,wordPos
1953,No,Press the spacebar to reveal the next words / sentence.,13617,Yes,23,Sometimes there were single blank spaces before the questions which confused me a little because I kind of expected another sentence.,cancel_strong,correct,Bachelor or Master,1.60E+12,N,167,FALSE,female,Y,N,N,C1,Were all of my bottles of wine safe in the basement?,248|229|220|212|249|271|210|246|269|248|250,243|229|219|223|234|222|230|244|260|255|294,299|254|216|235|222|243|327|270,"In fact, they all were even though I had secured them.","After my house was burglarized, I carefully inventoried my wine collection.",Some of the bottles of Chardonnay were missing.,Tue Jul 28 2020 12:11:07 GMT+0200 (Mitteleuropäische Sommerzeit),1.60E+12,16.364.466.666.666.600,key_press_trials[0],1,none,next
1953,No,Press the spacebar to reveal the next words / sentence.,11560,Yes,23,Sometimes there were single blank spaces before the questions which confused me a little because I kind of expected another sentence.,filler,correct,Bachelor or Master,1.60E+12,N,167,TRUE,female,Y,N,N,C1,Have I seen the Star Wars TV show?,206|213|231|245|242|282|222|233|261|264|272|232,856|296|236|240|264|256|426,235|233|216|195|227|239|235|213|223,I can't stand it when they make TV shows out of movies.,I am a big Star Wars fan.,I have seen every movie and read every book.,Tue Jul 28 2020 12:11:07 GMT+0200 (Mitteleuropäische Sommerzeit),1.60E+12,16.364.466.666.666.600,key_press_trials[0],2,none,next
1953,No,Press the spacebar to reveal the next words / sentence.,13391,Yes,23,Sometimes there were single blank spaces before the questions which confused me a little because I kind of expected another sentence.,anaphor_weak,correct,Bachelor or Master,1.60E+12,Y,167,FALSE,female,Y,N,Y,C1,Was there a dog in the veterinary clinic?,250|209|211|219|215|242|252|210|199|206|200|216|224|465,296|283|243|227|230|232|235|242|210|230|304|265|250|248,255|226|208|219|234|251|254,The rest were intact so it should still be able to eat solid food.,"While working in the veterinary clinic, I caught a glimpse of a large bulldog.",Some of the dog's teeth were missing.,Tue Jul 28 2020 12:11:07 GMT+0200 (Mitteleuropäische Sommerzeit),1.60E+12,16.364.466.666.666.600,key_press_trials[0],3,none,next
1953,No,Press the spacebar to reveal the next words / sentence.,12954,Yes,23,Sometimes there were single blank spaces before the questions which confused me a little because I kind of expected another sentence.,filler,incorrect,Bachelor or Master,1.60E+12,N,167,TRUE,female,Y,N,Y,C1,Do I write my assignments in a notebook?,1305,255|211|222|224|372|261|221|213|210|246,205|234|234|204|215|220|201|199|312|274|235|219|250,,I use Post-It Notes to keep track of my homework.,"Sometimes I lose them, but the adhesive helps them stick to my notes.",Tue Jul 28 2020 12:11:07 GMT+0200 (Mitteleuropäische Sommerzeit),1.60E+12,16.364.466.666.666.600,key_press_trials[0],4,none,next
1953,No,Press the spacebar to reveal the next words / sentence.,11210,Yes,23,Sometimes there were single blank spaces before the questions which confused me a little because I kind of expected another sentence.,cancel_weak,correct,Bachelor or Master,1.60E+12,N,167,FALSE,female,Y,N,N,C1,Did the bowling ball leave any of the steps undamaged?,253|221|207|221|258|203|226|228|236|231|241,235|213|223|214|211|205|215|214|218|217|233|256,306|234|222|225|222|264,"In fact, they all were so they will require extensive repairs.",I heard that my friend dropped a bowling ball down the stairs.,Some of the steps were damaged.,Tue Jul 28 2020 12:11:07 GMT+0200 (Mitteleuropäische Sommerzeit),1.60E+12,16.364.466.666.666.600,key_press_trials[0],5,none,next
1953,No,Press the spacebar to reveal the next words / sentence.,8337,Yes,23,Sometimes there were single blank spaces before the questions which confused me a little because I kind of expected another sentence.,filler,correct,Bachelor or Master,1.60E+12,N,167,TRUE,female,Y,N,N,C1,Have I acted with Neil Patrick Harris?,268|250|236|229|241|250,382|253|233|232|261|234|247,242|251|261|256|249|258|279,I wish I could meet him.,Neil Patrick Harris is my favorite actor.,Harris stars in my favorite TV show.,Tue Jul 28 2020 12:11:07 GMT+0200 (Mitteleuropäische Sommerzeit),1.60E+12,16.364.466.666.666.600,key_press_trials[0],6,none,next
1953,No,Press the spacebar to reveal the next words / sentence.,13449,Yes,23,Sometimes there were single blank spaces before the questions which confused me a little because I kind of expected another sentence.,literal_strong,correct,Bachelor or Master,1.60E+12,N,167,FALSE,female,Y,N,N,C1,Did my high_school football team win every game?,237|229|237|281|269|308|456|266|251|247|225,251|228|207|211|222|236|217|224|241|240|249|256|236|261|239|236|288,288|244|245|251|282|353|290,The others were blowouts which made the games boring to watch.,I am a huge fan of my old high_school football team and attended every game last season.,Only some of their losses were close.,Tue Jul 28 2020 12:11:07 GMT+0200 (Mitteleuropäische Sommerzeit),1.60E+12,16.364.466.666.666.600,key_press_trials[0],7,none,next
1953,No,Press the spacebar to reveal the next words / sentence.,10040,Yes,23,Sometimes there were single blank spaces before the questions which confused me a little because I kind of expected another sentence.,filler,incorrect,Bachelor or Master,1.60E+12,N,167,TRUE,female,Y,N,Y,C1,Was the Ferrari black?,335,256|230|261|213|215|226|228|238|220|209|244|267|265|279,239|227|217|212|218|236|265|229,,When I arrived in the parking lot today I saw an expensive red Ferrari.,When I left for lunch it was gone.,Tue Jul 28 2020 12:11:07 GMT+0200 (Mitteleuropäische Sommerzeit),1.60E+12,16.364.466.666.666.600,key_press_trials[0],8,none,next
1953,No,Press the spacebar to reveal the next words / sentence.,11309,Yes,23,Sometimes there were single blank spaces before the questions which confused me a little because I kind of expected another sentence.,anaphor_strong,correct,Bachelor or Master,1.60E+12,N,167,FALSE,female,Y,N,N,C1,Was I studying for a French language test?,254|237|217|226|238|241|221|233|234|230,228|212|203|211|221|229|216|210|224|215|223|241|282|275,246|245|234|212|221|252|278,The others were irregular verbs which made the test challenging.,"To prepare for my Spanish test, I spent hours studying the new vocabulary items.",Some of the words were regular verbs.,Tue Jul 28 2020 12:11:07 GMT+0200 (Mitteleuropäische Sommerzeit),1.60E+12,16.364.466.666.666.600,key_press_trials[0],9,none,next
1953,No,Press the spacebar to reveal the next words / sentence.,13667,Yes,23,Sometimes there were single blank spaces before the questions which confused me a little because I kind of expected another sentence.,filler,correct,Bachelor or Master,1.60E+12,Y,167,TRUE,female,Y,N,Y,C1,Did being locked out all night make my cat hungry?,235|235|240|245|259|246|272|244|221|229|237|238|238,258|230|218|204|207|214|256|237|224|217|214|195|229,250|223|234|208|226|216|223|238|245|233|267|267|237,"The minute I opened the door, he ran inside to his food bowl.",I usually let my cat go outside for a couple hours every night.,"Last night, I forgot to let him back in until the next morning.",Tue Jul 28 2020 12:11:07 GMT+0200 (Mitteleuropäische Sommerzeit),1.60E+12,16.364.466.666.666.600,key_press_trials[0],10,none,next
1953,No,Press the spacebar to reveal the next words / sentence.,15863,Yes,23,Sometimes there were single blank spaces before the questions which confused me a little because I kind of expected another sentence.,literal_weak,correct,Bachelor or Master,1.60E+12,N,167,FALSE,female,Y,N,N,C1,Was the babysitter smoking pot instead of looking after my children?,235|226|223|239|242|225|244|233|288|252|269|285|266|245|355,251|208|244|251|212|222|423|209|203|214|225|266|262|249,243|235|237|244|335|383|255|267|304|337|380,"The others were untouched, but I was still concerned and decided to call her parents.","After the babysitter left, I went to my liquor collection and made a drink.",Only some of my new bottles of peach schnapps were opened.,Tue Jul 28 2020 12:11:07 GMT+0200 (Mitteleuropäische Sommerzeit),1.60E+12,16.364.466.666.666.600,key_press_trials[0],11,none,next
1953,No,Press the spacebar to reveal the next words / sentence.,9958,Yes,23,Sometimes there were single blank spaces before the questions which confused me a little because I kind of expected another sentence.,filler,correct,Bachelor or Master,1.60E+12,Y,167,TRUE,female,Y,N,Y,C1,Was I able to eat any of the tomatoes I planted?,288,298|227|278|441|245|240|236,266|224|222|216|209|233|220|204|219|219|219|234|282|254|241,,I planted tomato plants in my backyard.,"By the time the tomatoes became ripe, wild animals had already eaten most of them.",Tue Jul 28 2020 12:11:07 GMT+0200 (Mitteleuropäische Sommerzeit),1.60E+12,16.364.466.666.666.600,key_press_trials[0],12,none,next
1953,No,Press the spacebar to reveal the next words / sentence.,11747,Yes,23,Sometimes there were single blank spaces before the questions which confused me a little because I kind of expected another sentence.,cancel_strong,correct,Bachelor or Master,1.60E+12,N,167,FALSE,female,Y,N,N,C1,Did my parents save money by entirely avoiding expensive hotels?,247|223|232|232|233|248|240|229|222|228|252,228|188|220|221|232|226|218|214|224|221|228|223|216|231|234,256|207|217|202|213|457,"In fact, they all were because my family loves luxurious holidays.","When they returned, I reviewed each of the receipts for my family's trip to Europe.",Some of their hotels were expensive.,Tue Jul 28 2020 12:11:07 GMT+0200 (Mitteleuropäische Sommerzeit),1.60E+12,16.364.466.666.666.600,key_press_trials[0],13,none,next
1953,No,Press the spacebar to reveal the next words / sentence.,10413,Yes,23,Sometimes there were single blank spaces before the questions which confused me a little because I kind of expected another sentence.,filler,correct,Bachelor or Master,1.60E+12,Y,167,TRUE,female,Y,N,Y,C1,Did the mouse find a way into the plastic container?,583,265|241|224|211|221|242|249|249|271,239|221|216|212|214|222|232|228|242|235|242|236|216|216|378|259|214,,I have seen a mouse living in my apartment.,"Yesterday, it ate a bar of chocolate, even though the candy was in a closed plastic container.",Tue Jul 28 2020 12:11:07 GMT+0200 (Mitteleuropäische Sommerzeit),1.60E+12,16.364.466.666.666.600,key_press_trials[0],14,none,next
1953,No,Press the spacebar to reveal the next words / sentence.,10717,Yes,23,Sometimes there were single blank spaces before the questions which confused me a little because I kind of expected another sentence.,anaphor_weak,correct,Bachelor or Master,1.60E+12,Y,167,FALSE,female,Y,N,Y,C1,Was it dangerous for the residents to stay in town?,258|232|221|226|232|229|223|220|243|335,237|228|214|210|210|213|209|207|220|211|222,267|233|227|223|220|313,The rest stayed at home and foolishly risked their lives.,"Before the hurricane landed, I volunteered to help out in town.",Some of the residents had evacuated.,Tue Jul 28 2020 12:11:07 GMT+0200 (Mitteleuropäische Sommerzeit),1.60E+12,16.364.466.666.666.600,key_press_trials[0],15,none,next
1953,No,Press the spacebar to reveal the next words / sentence.,14526,Yes,23,Sometimes there were single blank spaces before the questions which confused me a little because I kind of expected another sentence.,filler,correct,Bachelor or Master,1.60E+12,N,167,TRUE,female,Y,N,N,C1,"While the song was on, was I paying attention to my surroundings?",233|214|216|213|219|224|231|215|226|240|224|233|244|249|224|218|286,262|225|252|242|237|232|220|218|225|237|271|259|264,233|231|232|224|224|224|414,"Afterwards, I realized that my windows had been open and other drivers had been staring at me.","When I was driving to work, my favorite song came on the radio.",I started to sing along really loudly.,Tue Jul 28 2020 12:11:07 GMT+0200 (Mitteleuropäische Sommerzeit),1.60E+12,16.364.466.666.666.600,key_press_trials[0],16,none,next
1953,No,Press the spacebar to reveal the next words / sentence.,13469,Yes,23,Sometimes there were single blank spaces before the questions which confused me a little because I kind of expected another sentence.,cancel_weak,correct,Bachelor or Master,1.60E+12,Y,167,FALSE,female,Y,N,Y,C1,Were any of my predictions confirmed by my research?,256|240|225|219|210|227|210|218|221|223|231|212|251|307,254|232|226|209|237|239|237|236|246|265|263|278|259|254|238|245,256|244|231|236|234|479,"In fact, they all were so I should be able to publish the results.","To check on the progress of my research, I quickly scanned the experiments in the lab.",Some of my predictions were correct.,Tue Jul 28 2020 12:11:07 GMT+0200 (Mitteleuropäische Sommerzeit),1.60E+12,16.364.466.666.666.600,key_press_trials[0],17,none,next
1953,No,Press the spacebar to reveal the next words / sentence.,10107,Yes,23,Sometimes there were single blank spaces before the questions which confused me a little because I kind of expected another sentence.,filler,correct,Bachelor or Master,1.60E+12,Y,167,TRUE,female,Y,N,Y,C1,Is the play a musical?,230|220|229|206|205|212|501|233|306,311|243|248|247|224|230|223,223|237|241|573|208|481|356,If the actors could sing it would sound nicer.,Over the weekend I saw a play.,The student theatre group put it on.,Tue Jul 28 2020 12:11:07 GMT+0200 (Mitteleuropäische Sommerzeit),1.60E+12,16.364.466.666.666.600,key_press_trials[0],18,none,next
1953,No,Press the spacebar to reveal the next words / sentence.,14097,Yes,23,Sometimes there were single blank spaces before the questions which confused me a little because I kind of expected another sentence.,literal_strong,correct,Bachelor or Master,1.60E+12,N,167,FALSE,female,Y,N,N,C1,Were all of the gold watches genuine?,245|230|215|222|214|258|237|237|231|243|268|313,240|217|217|200|208|197|204|229|233|464|240|248|243|231|231|251|269,244|227|232|233|225|235|334|280,"The rest were real, but the company is still planning to sue.","To make sure the company didn't receive fraudulent merchandise, I carefully inspected the new shipment of jewelry.",Only some of the gold watches were fakes.,Tue Jul 28 2020 12:11:07 GMT+0200 (Mitteleuropäische Sommerzeit),1.60E+12,16.364.466.666.666.600,key_press_trials[0],19,none,next
1953,No,Press the spacebar to reveal the next words / sentence.,15376,Yes,23,Sometimes there were single blank spaces before the questions which confused me a little because I kind of expected another sentence.,filler,correct,Bachelor or Master,1.60E+12,N,167,TRUE,female,Y,N,N,C1,Did my trouble with the windmill cause me to lose the game?,251|224|218|212|228|225|222|215|233|243|259|274|256|227|235|261|229|216|229|364,256|246|269|233|235|242|241|242|383,235|208|222|224|245|283|231|445|399|477,"At one hole, my ball got stuck on a windmill, but at the next, I got a hole in one.",On Saturday my friends and I played miniature golf.,"I played pretty well, but my scores fluctuated a lot.",Tue Jul 28 2020 12:11:07 GMT+0200 (Mitteleuropäische Sommerzeit),1.60E+12,16.364.466.666.666.600,key_press_trials[0],20,none,next
1953,No,Press the spacebar to reveal the next words / sentence.,13880,Yes,23,Sometimes there were single blank spaces before the questions which confused me a little because I kind of expected another sentence.,anaphor_strong,correct,Bachelor or Master,1.60E+12,Y,167,FALSE,female,Y,N,Y,C1,Did my client have real-estate investments?,221|218|239|242|243|232|249|247|237|257|367,294|234|225|301|1002|284|455|215|231|267,233|229|245|248|273|297|391,The others were successful in spite of the recent economic downturn.,"At my client's request, I meticulously compiled the investment report.",Some of the real-estate investments lost money.,Tue Jul 28 2020 12:11:07 GMT+0200 (Mitteleuropäische Sommerzeit),1.60E+12,16.364.466.666.666.600,key_press_trials[0],21,none,next
1953,No,Press the spacebar to reveal the next words / sentence.,11528,Yes,23,Sometimes there were single blank spaces before the questions which confused me a little because I kind of expected another sentence.,filler,correct,Bachelor or Master,1.60E+12,N,167,TRUE,female,Y,N,N,C1,Was my bookshelf sturdy?,291|251|251|272|273|285|294,379|244|259|225|246|267|256|262,282|235|214|251|264|245|249|263|261|253|226|248|327|295|292,"The next day, it fell apart again.",I built a new bookshelf for my bedroom.,"It was very difficult to do, because I lost the instructions for putting it together.",Tue Jul 28 2020 12:11:07 GMT+0200 (Mitteleuropäische Sommerzeit),1.60E+12,16.364.466.666.666.600,key_press_trials[0],22,none,next
1953,No,Press the spacebar to reveal the next words / sentence.,14616,Yes,23,Sometimes there were single blank spaces before the questions which confused me a little because I kind of expected another sentence.,literal_weak,correct,Bachelor or Master,1.60E+12,Y,167,FALSE,female,Y,N,Y,C1,Are there liquid nitrogen containers in the laboratory?,289|288|366|328|218|284|277|273|240|251|245,373|366|467|261|246|253|250|248|221|244|240|251|243|226|239,248|231|225|192|219|218|221|238|282|349|306|363,The others were normal but I decided to order more anyway.,"To keep the laboratory well stocked, I occasionally look at which chemicals are being used.","Today, only some of the liquid nitrogen containers needed to be refilled.",Tue Jul 28 2020 12:11:07 GMT+0200 (Mitteleuropäische Sommerzeit),1.60E+12,16.364.466.666.666.600,key_press_trials[0],23,none,next
1953,No,Press the spacebar to reveal the next words / sentence.,8068,Yes,23,Sometimes there were single blank spaces before the questions which confused me a little because I kind of expected another sentence.,filler,correct,Bachelor or Master,1.60E+12,N,167,TRUE,female,Y,N,N,C1,Am I well yet?,571,254|230|240|311|264|258|238|240|241,245|232|233|238|247,,I got sick with a cold over the weekend.,I am still taking decongestants.,Tue Jul 28 2020 12:11:07 GMT+0200 (Mitteleuropäische Sommerzeit),1.60E+12,16.364.466.666.666.600,key_press_trials[0],24,none,next
1953,No,Press the spacebar to reveal the next words / sentence.,17105,Yes,23,Sometimes there were single blank spaces before the questions which confused me a little because I kind of expected another sentence.,cancel_strong,correct,Bachelor or Master,1.60E+12,N,167,FALSE,female,Y,N,N,C1,Had the store sold out all of its leather couches before the furniture sale?,255|227|261|213|212|226|240|263|265|315|286,221|222|232|259|252|249|235|278|298|291|261|228,252|229|225|205|211|446|243|398,"In fact, they all had since they were stylish and cheap.","After the furniture sale, I catalogued all the merchandise in the store.",Some of the leather couches had been sold.,Tue Jul 28 2020 12:11:07 GMT+0200 (Mitteleuropäische Sommerzeit),1.60E+12,16.364.466.666.666.600,key_press_trials[0],25,none,next
1953,No,Press the spacebar to reveal the next words / sentence.,15211,Yes,23,Sometimes there were single blank spaces before the questions which confused me a little because I kind of expected another sentence.,filler,correct,Bachelor or Master,1.60E+12,N,167,TRUE,female,Y,N,N,C1,Did I get into an accident on the highway?,248|223|211|228|233|221|237|319|275|360|318|274|294|333,232|210|224|243|578|240|211|240|228|215|222|247|267|303|227|219|223|224|348,241|224|222|229|236|233|265|273|265|222|260|240|269,It looked to me like a police officer was giving the driver a ticket.,"When I was driving on the highway, a car nearly crashed into me because it was going too fast.","Later on, I noticed the same car on the side of the road.",Tue Jul 28 2020 12:11:07 GMT+0200 (Mitteleuropäische Sommerzeit),1.60E+12,16.364.466.666.666.600,key_press_trials[0],26,none,next
1953,No,Press the spacebar to reveal the next words / sentence.,12976,Yes,23,Sometimes there were single blank spaces before the questions which confused me a little because I kind of expected another sentence.,anaphor_weak,correct,Bachelor or Master,1.60E+12,N,167,FALSE,female,Y,N,N,C1,Was the bus empty during the accident?,261|229|228|228|238|266|238|293|262|256|255|263|268|244,288|252|219|223|242|240|223|245|247|264|250|253|278|250|233|237|237|242,259|245|238|281|262|267|260,The others were killed on impact and there was no opportunity to save them.,I stopped to see if I could help with the bus accident on the side of the highway.,Some of the passengers were still alive.,Tue Jul 28 2020 12:11:07 GMT+0200 (Mitteleuropäische Sommerzeit),1.60E+12,16.364.466.666.666.600,key_press_trials[0],27,none,next
1953,No,Press the spacebar to reveal the next words / sentence.,14062,Yes,23,Sometimes there were single blank spaces before the questions which confused me a little because I kind of expected another sentence.,filler,correct,Bachelor or Master,1.60E+12,N,167,TRUE,female,Y,N,N,C1,Did the people at the bake sale think my brownies were disgusting?,229|233|221|252|274|246|249|252|258|276|249|268|284|247|297,268|258|256|300|257|255|266|270|231|238|285|260|242|258,252|222|230|238|248|263|259|233|243|259|358,They were so popular that some of the other parents asked me for the recipe.,My daughter asked me to make brownies for the bake sale at her school.,"At the sale, my brownies sold out during the first hour.",Tue Jul 28 2020 12:11:07 GMT+0200 (Mitteleuropäische Sommerzeit),1.60E+12,16.364.466.666.666.600,key_press_trials[0],28,none,next
1953,No,Press the spacebar to reveal the next words / sentence.,10489,Yes,23,Sometimes there were single blank spaces before the questions which confused me a little because I kind of expected another sentence.,cancel_weak,correct,Bachelor or Master,1.60E+12,Y,167,FALSE,female,Y,N,Y,C1,Did anyone in my family cook spicy food last week?,267|228|219|229|233|236|239|261|265|264|267,359|156|264|250|307|189|341,242|236|284|253|271|280,"In fact, they all were but fortunately I love spicy food.","Last week, I attended a family potluck.",Some of the dishes were spicy.,Tue Jul 28 2020 12:11:07 GMT+0200 (Mitteleuropäische Sommerzeit),1.60E+12,16.364.466.666.666.600,key_press_trials[0],29,none,next
1953,No,Press the spacebar to reveal the next words / sentence.,13925,Yes,23,Sometimes there were single blank spaces before the questions which confused me a little because I kind of expected another sentence.,filler,correct,Bachelor or Master,1.60E+12,Y,167,TRUE,female,Y,N,Y,C1,Was I lucky to have noticed the object in the water?,255|248|268|305|248|255|277|291|264|241|297|250|279,235|231|222|230|228|229|233|238|239|241|257|243|296|265|276,274|250|246|247|284|266|321|252|267|373|335,"Nobody claimed it when I asked the people nearby, so I kept it.",I was swimming laps in my local pool when I noticed something at the bottom.,"When I dove down, I realized it was a twenty-dollar bill.",Tue Jul 28 2020 12:11:07 GMT+0200 (Mitteleuropäische Sommerzeit),1.60E+12,16.364.466.666.666.600,key_press_trials[0],30,none,next
1953,No,Press the spacebar to reveal the next words / sentence.,13893,Yes,23,Sometimes there were single blank spaces before the questions which confused me a little because I kind of expected another sentence.,literal_strong,correct,Bachelor or Master,1.60E+12,Y,167,FALSE,female,Y,N,Y,C1,Did the manager have a meeting with any of the accountants?,238|223|222|223|218|234|225|225|214|242|238|248|267|282|249|255|239|335,247|260|237|607|246|265|248|238|234|238|250|254,233|235|248|253|255|258|241|353,The rest were missing because they had to audit the company's finances before the end of the quarter.,"This morning, I took attendance at an important meeting with the manager.",Only some of the company's accountants were there.,Tue Jul 28 2020 12:11:07 GMT+0200 (Mitteleuropäische Sommerzeit),1.60E+12,16.364.466.666.666.600,key_press_trials[0],31,none,next
1953,No,Press the spacebar to reveal the next words / sentence.,9678,Yes,23,Sometimes there were single blank spaces before the questions which confused me a little because I kind of expected another sentence.,filler,incorrect,Bachelor or Master,1.60E+12,Y,167,TRUE,female,Y,N,N,C1,Did I still read a book?,492,243|258|240|245|240|237|239|267|262|246|428,257|248|243|227|245|250|250|260|264|247,,"After dinner, I listen to Celtic music and read a book.",Today I listened to classic rock instead of Celtic music.,Tue Jul 28 2020 12:11:07 GMT+0200 (Mitteleuropäische Sommerzeit),1.60E+12,16.364.466.666.666.600,key_press_trials[0],32,none,next
1953,No,Press the spacebar to reveal the next words / sentence.,12068,Yes,23,Sometimes there were single blank spaces before the questions which confused me a little because I kind of expected another sentence.,anaphor_strong,correct,Bachelor or Master,1.60E+12,Y,167,FALSE,female,Y,N,Y,C1,Did it rain earlier today?,255|235|239|274|235|266|252|283|321|320,234|235|236|232|221|219|250|235|235|236|246|229|232|469,249|235|232|244|246|342|244|229|251,The rest were dry because they had remembered their umbrellas.,"Earlier today, I was leading a small group of tourists around the sights downtown.",Some of tourists got soaked by the rain storm.,Tue Jul 28 2020 12:11:07 GMT+0200 (Mitteleuropäische Sommerzeit),1.60E+12,16.364.466.666.666.600,key_press_trials[0],33,none,next
1953,No,Press the spacebar to reveal the next words / sentence.,13506,Yes,23,Sometimes there were single blank spaces before the questions which confused me a little because I kind of expected another sentence.,filler,correct,Bachelor or Master,1.60E+12,N,167,TRUE,female,Y,N,N,C1,Do my parents always obey the law?,246|242|258|241|251|260|292|281|251|244|281|302,252|241|224|225|221|221|211|238|232|227|202|228|231|239|242|276|273|268,278|241|236|267|247|283|258|583,"I am worried about their decision, since they might go to prison.","When I talked to my parents yesterday, they told me that they did not pay taxes this year.",They have decided that all taxation is theft.,Tue Jul 28 2020 12:11:07 GMT+0200 (Mitteleuropäische Sommerzeit),1.60E+12,16.364.466.666.666.600,key_press_trials[0],34,none,next
1953,No,Press the spacebar to reveal the next words / sentence.,11769,Yes,23,Sometimes there were single blank spaces before the questions which confused me a little because I kind of expected another sentence.,literal_weak,correct,Bachelor or Master,1.60E+12,N,167,FALSE,female,Y,N,N,C1,Had all of my favorite rides been removed from Disney World?,239|231|229|230|278|276|255|205|254|361,235|237|240|217|227|246|229|234|227|239|261|336,224|242|240|237|232|238|249|267|448,The rest were shut_down since they were no longer popular.,"When I visited Disney World, I quickly walked around the amusement park.",Only some of my favorite rides were still running.,Tue Jul 28 2020 12:11:07 GMT+0200 (Mitteleuropäische Sommerzeit),1.60E+12,16.364.466.666.666.600,key_press_trials[0],35,none,next
1953,No,Press the spacebar to reveal the next words / sentence.,14149,Yes,23,Sometimes there were single blank spaces before the questions which confused me a little because I kind of expected another sentence.,filler,correct,Bachelor or Master,1.60E+12,Y,167,TRUE,female,Y,N,Y,C1,Did my family remember my birthday this year?,252|223|217|215|213|217|222|226|234|247|217|261|249|306,246|300|226|255|249|233|235|248|242|233|277,258|234|243|231|226|241|767|247|633|243|249|472,The cake also had my name on the top in blue and green icing.,"For my birthday, my family bought me an ice cream cake.","The inside of it was mint-chocolate chip, my favorite ice cream flavor.",Tue Jul 28 2020 12:11:07 GMT+0200 (Mitteleuropäische Sommerzeit),1.60E+12,16.364.466.666.666.600,key_press_trials[0],36,none,next
1953,No,Press the spacebar to reveal the next words / sentence.,14703,Yes,23,Sometimes there were single blank spaces before the questions which confused me a little because I kind of expected another sentence.,cancel_strong,incorrect,Bachelor or Master,1.60E+12,N,167,FALSE,female,Y,N,Y,C1,Were the teachers insensitive to the feelings of the students?,236|223|226|218|223|239|243|225|217|230|231|226|220|243|271|245|387,241|228|231|226|264|254|274|248|249|254|251|234|237|242|256,429|218|244|277|251|362|618,"In fact, they all did because the teachers didn't want any of them to feel left out.",The PTA picked me to organize every award for the assembly at my daughter's school.,Some of the honors students received prizes.,Tue Jul 28 2020 12:11:07 GMT+0200 (Mitteleuropäische Sommerzeit),1.60E+12,16.364.466.666.666.600,key_press_trials[0],37,none,next
1953,No,Press the spacebar to reveal the next words / sentence.,9976,Yes,23,Sometimes there were single blank spaces before the questions which confused me a little because I kind of expected another sentence.,filler,correct,Bachelor or Master,1.60E+12,N,167,TRUE,female,Y,N,N,C1,Do I like cherry gumdrops?,506,531|247|270|300|361,245|270|253|217|236|252|282|275|272|310,,I can't stand fruit-flavored candy.,"I make exceptions for lemon lollipops and chewy candy, though.",Tue Jul 28 2020 12:11:07 GMT+0200 (Mitteleuropäische Sommerzeit),1.60E+12,16.364.466.666.666.600,key_press_trials[0],38,none,next
1953,No,Press the spacebar to reveal the next words / sentence.,15659,Yes,23,Sometimes there were single blank spaces before the questions which confused me a little because I kind of expected another sentence.,anaphor_weak,correct,Bachelor or Master,1.60E+12,Y,167,FALSE,female,Y,N,Y,C1,Did the library's reference section contain dictionaries?,241|246|239|241|244|291|270|232|255|250|238|267|261|252|272|246|279,262|242|224|234|226|236|237|251|238|272|251|504|226|368,244|274|251|267|271|272|327,The others were labeled appropriately though a few of them had been shelved in the wrong place.,The librarian told me about how annoying it was to reorganize the reference section.,Some of the dictionaries were labeled incorrectly.,Tue Jul 28 2020 12:11:07 GMT+0200 (Mitteleuropäische Sommerzeit),1.60E+12,16.364.466.666.666.600,key_press_trials[0],39,none,next
1953,No,Press the spacebar to reveal the next words / sentence.,14349,Yes,23,Sometimes there were single blank spaces before the questions which confused me a little because I kind of expected another sentence.,filler,correct,Bachelor or Master,1.60E+12,Y,167,TRUE,female,Y,N,Y,C1,Did I see a doctor after I started feeling ill?,257|250|276|265|246|247|269|259|261|244|248|239|286,254|257|230|242|235|232|241|258|242|250|260|253|256|292|284,275|232|263|270|243|238|272|261|248|285|300,"Luckily, there are drugs which effectively treat it, and I am now healthy.","After I got back from my trip to the equator, I started feeling very ill.",My doctor told me I had contracted a rare tropical disease.,Tue Jul 28 2020 12:11:07 GMT+0200 (Mitteleuropäische Sommerzeit),1.60E+12,16.364.466.666.666.600,key_press_trials[0],40,none,next
1953,No,Press the spacebar to reveal the next words / sentence.,12750,Yes,23,Sometimes there were single blank spaces before the questions which confused me a little because I kind of expected another sentence.,cancel_weak,correct,Bachelor or Master,1.60E+12,N,167,FALSE,female,Y,N,N,C1,Were my office's computers safe from damaging software?,290|252|253|242|240|265|230|245|263|234|260|270|462,264|315|290|235|255|244|259|245|228|223|268|262|264|261,275|254|282|299|243|354,"In fact, they all were and the virus nearly destroyed the whole system.","As the office's main technician, I had been alerted to the dangerous new virus.",Some of our computers were infected.,Tue Jul 28 2020 12:11:07 GMT+0200 (Mitteleuropäische Sommerzeit),1.60E+12,16.364.466.666.666.600,key_press_trials[0],41,none,next
1953,No,Press the spacebar to reveal the next words / sentence.,9230,Yes,23,Sometimes there were single blank spaces before the questions which confused me a little because I kind of expected another sentence.,filler,correct,Bachelor or Master,1.60E+12,N,167,TRUE,female,Y,N,N,C1,Did my mother write to me?,291|250|275|278|273,216|238|251|236|233|260|260|238|251|247,262|241|239|266|288|256|256|255|246,I had no new email.,I turned on my computer today to check my email.,I have been waiting to hear from my mother.,Tue Jul 28 2020 12:11:07 GMT+0200 (Mitteleuropäische Sommerzeit),1.60E+12,16.364.466.666.666.600,key_press_trials[0],42,none,next
1953,No,Press the spacebar to reveal the next words / sentence.,11748,Yes,23,Sometimes there were single blank spaces before the questions which confused me a little because I kind of expected another sentence.,literal_strong,correct,Bachelor or Master,1.60E+12,Y,167,FALSE,female,Y,N,Y,C1,Was there a school bus sitting in the parking lot?,267|280|229|251|251|253|245|255|254|306|271|244|244|320,257|245|245|247|237|285|246|272|261|279|273,248|251|252|246|252|309|272,The others were fine so it would not cost too much to fix it.,"In the school parking lot, I carefully inspected an old bus.",Only some of its tires were flat.,Tue Jul 28 2020 12:11:07 GMT+0200 (Mitteleuropäische Sommerzeit),1.60E+12,16.364.466.666.666.600,key_press_trials[0],43,none,next
1953,No,Press the spacebar to reveal the next words / sentence.,12138,Yes,23,Sometimes there were single blank spaces before the questions which confused me a little because I kind of expected another sentence.,filler,correct,Bachelor or Master,1.60E+12,N,167,TRUE,female,Y,N,N,C1,Did the weather prevent me from having a picnic?,259|239|237|228|234|244|470|270,267|228|224|239|242|239|228|227|253,255|238|236|250|232|249|227|235|272|259|243|236|234|310,"However, the day turned out sunny after all.",I planned to have a picnic in the park.,"The weather forecast predicted rain, so I thought I would have to cancel it.",Tue Jul 28 2020 12:11:07 GMT+0200 (Mitteleuropäische Sommerzeit),1.60E+12,16.364.466.666.666.600,key_press_trials[0],44,none,next
1953,No,Press the spacebar to reveal the next words / sentence.,11515,Yes,23,Sometimes there were single blank spaces before the questions which confused me a little because I kind of expected another sentence.,anaphor_strong,correct,Bachelor or Master,1.60E+12,Y,167,FALSE,female,Y,N,Y,C1,Did the math textbook have problems for readers to solve?,224|222|222|227|239|234|226|219|209|376|243|252,270|243|235|236|271|270|300|291|290|267|267|296,279|229|216|228|234|261,The others were straightforward and I feel like I learned a lot.,"At a friend's suggestion, I completely worked through an entire math textbook.",Some of its problems were difficult.,Tue Jul 28 2020 12:11:07 GMT+0200 (Mitteleuropäische Sommerzeit),1.60E+12,16.364.466.666.666.600,key_press_trials[0],45,none,next
1953,No,Press the spacebar to reveal the next words / sentence.,18742,Yes,23,Sometimes there were single blank spaces before the questions which confused me a little because I kind of expected another sentence.,filler,correct,Bachelor or Master,1.60E+12,N,167,TRUE,female,Y,N,N,C1,Did the writer ask me before inserting the slur into his article?,277|270|246|258|262|305|274|268|265|273|301|246|272|270|268,234|241|244|242|253|245|250|254|233|226|223|234|246|266|275|272|246|274|287|269|254,266|241|240|235|249|274|261|301|303|319|260|302|413,I issued a long apology on the front page of the paper the next day.,"As the editor of the newspaper, I have to make sure that the paper does not publish anything that is offensive.","Unfortunately, a disgruntled writer slipped a racial slur into an article last week.",Tue Jul 28 2020 12:11:07 GMT+0200 (Mitteleuropäische Sommerzeit),1.60E+12,16.364.466.666.666.600,key_press_trials[0],46,none,next
1953,No,Press the spacebar to reveal the next words / sentence.,12491,Yes,23,Sometimes there were single blank spaces before the questions which confused me a little because I kind of expected another sentence.,literal_weak,correct,Bachelor or Master,1.60E+12,Y,167,FALSE,female,Y,N,Y,C1,Has my portfolio lost value this year?,231|225|217|213|228|221|227|220|244|241|242|248|279|369,249|249|242|251|257|240|231|240|234|251|265|253|287|256,259|272|247|240|234|224|331,The others were relatively steady but my portfolio was still down for the year.,"While eating breakfast, I had little time to skim the stock prices from yesterday.",Only some of my stocks went up.,Tue Jul 28 2020 12:11:07 GMT+0200 (Mitteleuropäische Sommerzeit),1.60E+12,16.364.466.666.666.600,key_press_trials[0],47,none,next
1953,No,Press the spacebar to reveal the next words / sentence.,14995,Yes,23,Sometimes there were single blank spaces before the questions which confused me a little because I kind of expected another sentence.,filler,incorrect,Bachelor or Master,1.60E+12,Y,167,TRUE,female,Y,N,N,C1,Is tonight Sunday?,243|244|251|225|235|265|223|232|251|244|250|232|248|302|287,250|300|250|258|223|232|235|226|240|241|228|232|241|231|229|220|445,251|264|244|243|460|239|252|258|402,"After a long day of study and rest, cards are the perfect way to relax.","I love to play card games with my friends, and we are going to play Hearts tonight.",We always enjoy playing a game on Sunday evening.,Tue Jul 28 2020 12:11:07 GMT+0200 (Mitteleuropäische Sommerzeit),1.60E+12,16.364.466.666.666.600,key_press_trials[0],48,none,next
1951,No,Press the spacebar to reveal the next words/sentence.,26009,Yes,17,,literal_weak,incorrect,High School or lower,1.60E+12,N,167,FALSE,female,Y,N,Y,B1,Did the bowling ball leave any of the steps undamaged?,470|396|420|366|424|377|376|498|411|365|403,915|465|395|469|399|668|411|443|453|387|386|447,405|371|370|337|355|417|443,The others were fine so the repairs shouldn't be too expensive.,I heard that my friend dropped a bowling ball down the stairs.,Only some of the steps were damaged.,Tue Jul 28 2020 11:10:03 GMT+0200 (Ora legale dell’Europa centrale),1.60E+12,26.588.383.333.333.300,key_press_trials[1],1,none,next
1951,No,Press the spacebar to reveal the next words/sentence.,18414,Yes,17,,filler,correct,High School or lower,1.60E+12,N,167,TRUE,female,Y,N,N,B1,Does the radio play Pink Floyd?,367|362|382|388|348|377|359|375|357|371|379|342|382,543|537|439|562|359|385,377|364|383|342|327|387|337|366|509,"The radio doesn't play music I like, so I listen to my iPod.",I love to listen to music.,I could spend hours just listening to Pink Floyd.,Tue Jul 28 2020 11:10:03 GMT+0200 (Ora legale dell’Europa centrale),1.60E+12,26.588.383.333.333.300,key_press_trials[1],2,none,next
1951,No,Press the spacebar to reveal the next words/sentence.,28298,Yes,17,,cancel_strong,correct,High School or lower,1.60E+12,N,167,FALSE,female,Y,N,N,B1,Had all of my favorite rides been removed from Disney World?,494|425|382|615|471|487|483|530|533|544,729|616|1678|611|712|337|434|721|400|368|396|804|397|387|573,418|490|408|448|443|1251|407|1645,"In fact, they all were since they were still popular.","When I entered Disney World, I asked about the status of each of the rides.",Some of my favorite rides were still running.,Tue Jul 28 2020 11:10:03 GMT+0200 (Ora legale dell’Europa centrale),1.60E+12,26.588.383.333.333.300,key_press_trials[1],3,none,next
1951,No,Press the spacebar to reveal the next words/sentence.,24053,Yes,17,,filler,correct,High School or lower,1.60E+12,Y,167,TRUE,female,Y,N,Y,B1,Did the newspaper keep the floor clean?,362|336|300|302|354|309|393|371,558|371|416|1583|534|755|1957|512|455|423|592,799|1721|532|445|402|363|370|326|341|480|302|471|398,"We still got paint on our clothes, though.","When I was babysitting my cousin, we did an art project.",We spread newspaper on the floor so it wouldn't get paint on it.,Tue Jul 28 2020 11:10:03 GMT+0200 (Ora legale dell’Europa centrale),1.60E+12,26.588.383.333.333.300,key_press_trials[1],4,none,next
1951,No,Press the spacebar to reveal the next words/sentence.,23227,Yes,17,,anaphor_strong,correct,High School or lower,1.60E+12,Y,167,FALSE,female,Y,N,Y,B1,Has my portfolio lost value this year?,347|479|301|339|466|371|712|373|482|370|437|370|346|316,414|559|404|379|355|352|389|290|315|320|522|369|380|565|518|470,424|403|305|356|331|311,The others were relatively steady but my portfolio was still down for the year.,"While eating breakfast, I had lots of time to pore over the stock prices from yesterday.",Some of my stocks went up.,Tue Jul 28 2020 11:10:03 GMT+0200 (Ora legale dell’Europa centrale),1.60E+12,26.588.383.333.333.300,key_press_trials[1],5,none,next
1951,No,Press the spacebar to reveal the next words/sentence.,27013,Yes,17,,filler,correct,High School or lower,1.60E+12,N,167,TRUE,female,Y,N,N,B1,Did I get into an accident on the highway?,371|512|435|389|341|367|385|584|467|510|518|411|485|878,1070|528|586|393|450|350|372|470|411|362|382|498|392|413|433|466|456|320|295,403|446|440|1740|413|394|359|432|413|423|401|345|340,It looked to me like a police officer was giving the driver a ticket.,"When I was driving on the highway, a car nearly crashed into me because it was going too fast.","Later on, I noticed the same car on the side of the road.",Tue Jul 28 2020 11:10:03 GMT+0200 (Ora legale dell’Europa centrale),1.60E+12,26.588.383.333.333.300,key_press_trials[1],6,none,next
1951,No,Press the spacebar to reveal the next words/sentence.,22137,Yes,17,,cancel_weak,correct,High School or lower,1.60E+12,Y,167,FALSE,female,Y,N,Y,B1,Did the math textbook have problems for readers to solve?,384|359|387|366|337|337|357|631|457|370|580|442,385|384|362|1119|427|352|405|558|445|419|358|381|528,454|387|395|501|426|371,"In fact, they all were but it received a positive review anyway.","At a friend's suggestion, I read a review of a new math textbook.",Some of its problems were difficult.,Tue Jul 28 2020 11:10:03 GMT+0200 (Ora legale dell’Europa centrale),1.60E+12,26.588.383.333.333.300,key_press_trials[1],7,none,next
1951,No,Press the spacebar to reveal the next words/sentence.,23213,Yes,17,,filler,incorrect,High School or lower,1.60E+12,Y,167,TRUE,female,Y,N,N,B1,Did the mouse find a way into the plastic container?,2337,713|490|448|385|416|698|385|887|785,465|397|359|376|312|337|439|355|450|408|379|511|444|426|564|526|440,,I have seen a mouse living in my apartment.,"Yesterday, it ate a bar of chocolate, even though the candy was in a closed plastic container.",Tue Jul 28 2020 11:10:03 GMT+0200 (Ora legale dell’Europa centrale),1.60E+12,26.588.383.333.333.300,key_press_trials[1],8,none,next
1951,No,Press the spacebar to reveal the next words/sentence.,21719,Yes,17,,anaphor_weak,incorrect,High School or lower,1.60E+12,N,167,FALSE,female,Y,N,Y,B1,Did my parents save money by entirely avoiding expensive hotels?,449|427|463|406|441|504|463|474|453|502|529,476|549|567|423|368|366|1179|458|476|438|394|499,446|397|406|460|411|477,The rest were cheap despite my family's love for luxurious holidays.,"When they returned, my family told me about their trip to Europe.",Some of their hotels were expensive.,Tue Jul 28 2020 11:10:03 GMT+0200 (Ora legale dell’Europa centrale),1.60E+12,26.588.383.333.333.300,key_press_trials[1],9,none,next
1951,No,Press the spacebar to reveal the next words/sentence.,15836,Yes,17,,filler,correct,High School or lower,1.60E+12,Y,167,TRUE,female,Y,N,Y,B1,Do I like Led Zeppelin?,453|481|409|432|370|317,558|587|470|485|389|452|506|397,439|502|469|361|363|400|409|398|368|365,They played for about an hour.,Yesterday I went to a Led Zeppelin concert.,I only go to see bands that I really like.,Tue Jul 28 2020 11:10:03 GMT+0200 (Ora legale dell’Europa centrale),1.60E+12,26.588.383.333.333.300,key_press_trials[1],10,none,next
1951,No,Press the spacebar to reveal the next words/sentence.,20576,Yes,17,,literal_strong,correct,High School or lower,1.60E+12,N,167,FALSE,female,Y,N,N,B1,Was I studying for a French language test?,416|377|357|409|402|380|424|358|371|443,474|437|461|1203|627|488|428|445|366|360|395|352|439|385,416|443|405|335|360|436|714|480,The others were irregular verbs which made the test challenging.,"To prepare for my Spanish test, I spent hours studying the new vocabulary items.",Only some of the words were regular verbs.,Tue Jul 28 2020 11:10:03 GMT+0200 (Ora legale dell’Europa centrale),1.60E+12,26.588.383.333.333.300,key_press_trials[1],11,none,next
1951,No,Press the spacebar to reveal the next words/sentence.,25261,Yes,17,,filler,correct,High School or lower,1.60E+12,N,167,TRUE,female,Y,N,N,B1,Did the people at the bake sale think my brownies were disgusting?,421|417|366|347|369|378|365|335|327|361|336|345|312|321|327,497|588|411|443|387|467|375|600|471|392|516|453|454|384,396|390|382|397|873|434|442|396|358|383|380,They were so popular that some of the other parents asked me for the recipe.,My daughter asked me to make brownies for the bake sale at her school.,"At the sale, my brownies sold out during the first hour.",Tue Jul 28 2020 11:10:03 GMT+0200 (Ora legale dell’Europa centrale),1.60E+12,26.588.383.333.333.300,key_press_trials[1],12,none,next
1951,No,Press the spacebar to reveal the next words/sentence.,21705,Yes,17,,literal_weak,correct,High School or lower,1.60E+12,Y,167,FALSE,female,Y,N,Y,B1,Were any of my predictions confirmed by my research?,458|490|451|482|442|379|361|544|442|489,440|421|432|381|375|410|375|377|421|351|415|388|376|443|455|407,473|418|404|398|426|492|398,The rest were wrong so my theory must be mistaken.,"To check on the progress of my research, I quickly scanned the experiments in the lab.",Only some of my predictions were correct.,Tue Jul 28 2020 11:10:03 GMT+0200 (Ora legale dell’Europa centrale),1.60E+12,26.588.383.333.333.300,key_press_trials[1],13,none,next
1951,No,Press the spacebar to reveal the next words/sentence.,24950,Yes,17,,filler,correct,High School or lower,1.60E+12,Y,167,TRUE,female,Y,N,Y,B1,Did my family remember my birthday this year?,374|385|384|408|363|341|313|346|339|344|373|342|336|290,443|418|576|379|509|340|472|381|369|359|331,310|339|520|340|550|414|747|525|533|452|380|463,The cake also had my name on the top in blue and green icing.,"For my birthday, my family bought me an ice cream cake.","The inside of it was mint-chocolate chip, my favorite ice cream flavor.",Tue Jul 28 2020 11:10:03 GMT+0200 (Ora legale dell’Europa centrale),1.60E+12,26.588.383.333.333.300,key_press_trials[1],14,none,next
1951,No,Press the spacebar to reveal the next words/sentence.,21959,Yes,17,,cancel_strong,correct,High School or lower,1.60E+12,N,167,FALSE,female,Y,N,N,B1,Were all of the gold watches genuine?,370|347|370|324|325|359|327|351|387|693|354|308,443|468|435|447|534|359|387|380|577|448|350|392|389|373|431|430|337,390|445|440|1212|349|524|323,"In fact, they all were, so the company is planning to sue.","To make sure the company didn't receive fraudulent merchandise, I carefully inspected the new shipment of jewelry.",Some of the gold watches were fakes.,Tue Jul 28 2020 11:10:03 GMT+0200 (Ora legale dell’Europa centrale),1.60E+12,26.588.383.333.333.300,key_press_trials[1],15,none,next
1951,No,Press the spacebar to reveal the next words/sentence.,20092,Yes,17,,filler,correct,High School or lower,1.60E+12,N,167,TRUE,female,Y,N,N,B1,Was I happy with the new color of my walls?,384|570|406|430|441|338|393|318|323|326|272|323|326|304|355|319|290,429|420|686|456|593,333|491|373|360|418|433|536|380,"When the paint arrived, I discovered that it was a darker blue than the color I wanted.",I recently redecorated my bedroom.,I picked out blue paint for my walls.,Tue Jul 28 2020 11:10:03 GMT+0200 (Ora legale dell’Europa centrale),1.60E+12,26.588.383.333.333.300,key_press_trials[1],16,none,next
1951,No,Press the spacebar to reveal the next words/sentence.,33853,Yes,17,,anaphor_strong,correct,High School or lower,1.60E+12,N,167,FALSE,female,Y,N,N,B1,Was the babysitter smoking pot instead of looking after my children?,357|358|340|345|392|314|321|318|318|408|489|368|338|320|336,630|449|464|542|456|363|426|390|355|460,583|436|301|889|684|467|374|400|445|456,"The others were untouched, but I was still concerned and decided to call her parents.","After the babysitter left, I carefully examined my liquor collection.",Some of my new bottles of peach schnapps were opened.,Tue Jul 28 2020 11:10:03 GMT+0200 (Ora legale dell’Europa centrale),1.60E+12,26.588.383.333.333.300,key_press_trials[1],17,none,next
1951,No,Press the spacebar to reveal the next words/sentence.,21694,Yes,17,,filler,correct,High School or lower,1.60E+12,N,167,TRUE,female,Y,N,N,B1,Did I use my time in the airport productively?,370|323|377|358|682|470|401|302|322|339|300,380|412|317|307|432|518|419|506|439|435|367,433|402|373|406|355|363|405|454|351|398|424|355|406|484|417|373|372|420|307|325,I ended up solving crossword puzzles for most of the time.,"Because of the snow storm, my plane was eight hours late.","Though I tried to make the best of my time in the airport, there wasn't much for me to do.",Tue Jul 28 2020 11:10:03 GMT+0200 (Ora legale dell’Europa centrale),1.60E+12,26.588.383.333.333.300,key_press_trials[1],18,none,next
1951,No,Press the spacebar to reveal the next words/sentence.,23064,Yes,17,,cancel_weak,correct,High School or lower,1.60E+12,Y,167,FALSE,female,Y,N,Y,B1,Was there a dog in the veterinary clinic?,432|387|348|368|357|334|504|312|368|439|435|380|428,391|578|394|490|693|628|382|370|434|340|543|360|407|440,497|347|331|316|361|437|395,"In fact, they all were because its owners completely neglected its oral hygiene.","While working in the veterinary clinic, I caught a glimpse of a large bulldog.",Some of the dog's teeth were missing.,Tue Jul 28 2020 11:10:03 GMT+0200 (Ora legale dell’Europa centrale),1.60E+12,26.588.383.333.333.300,key_press_trials[1],19,none,next
1951,No,Press the spacebar to reveal the next words/sentence.,33735,Yes,17,,filler,correct,High School or lower,1.60E+12,N,167,TRUE,female,Y,N,N,B1,Had my phone rung during the show?,381|385|358|332|325|301|283|274|280|362|342|307|322|340|381|286|379|510|460|300|282|347,550|503|499|646|586|519|492|570,407|377|424|390|361|427|394|404|447|362|372|355|359,"I couldn't even find it by calling it and listening for the ring, because I had turned it off before the performance.",I lost my cell phone at a theater.,"I looked under all the seats around me, but I didn't see it.",Tue Jul 28 2020 11:10:03 GMT+0200 (Ora legale dell’Europa centrale),1.60E+12,26.588.383.333.333.300,key_press_trials[1],20,none,next
1951,No,Press the spacebar to reveal the next words/sentence.,24022,Yes,17,,anaphor_weak,correct,High School or lower,1.60E+12,N,167,FALSE,female,Y,N,N,B1,Were my office's computers safe from damaging software?,610|321|325|317|321|328|366|358|323|354|371,419|325|292|679|513|642|474|406|401|445|347|354|376|319,395|412|278|326|384|320,The rest were clean because their owners had been very cautious.,"As the office's main technician, I had been alerted to the dangerous new virus.",Some of our computers were infected.,Tue Jul 28 2020 11:10:03 GMT+0200 (Ora legale dell’Europa centrale),1.60E+12,26.588.383.333.333.300,key_press_trials[1],21,none,next
1951,No,Press the spacebar to reveal the next words/sentence.,17385,Yes,17,,filler,correct,High School or lower,1.60E+12,N,167,TRUE,female,Y,N,N,B1,Do I still enjoy raspberries?,1390,519|402|365|486|597|344|390,393|489|354|343|321|345|339|309|345|373|345|323|337|536|339|375|392|386|424,,My favorite fruit used to be raspberries.,"When I was younger, I saw a bug in one of my raspberries, and I haven't eaten one since.",Tue Jul 28 2020 11:10:03 GMT+0200 (Ora legale dell’Europa centrale),1.60E+12,26.588.383.333.333.300,key_press_trials[1],22,none,next
1951,No,Press the spacebar to reveal the next words/sentence.,28932,Yes,17,,literal_strong,correct,High School or lower,1.60E+12,Y,167,FALSE,female,Y,N,Y,B1,Did it rain earlier today?,466|347|345|355|364|358|337|345|403|425,2548|713|393|335|351|688|503|370|378|333|322|328|370|464,368|355|352|320|363|380|520|379|339|357,The rest were dry because they had remembered their umbrellas.,"Earlier today, I was leading a small group of tourists around the sights downtown.",Only some of tourists got soaked by the rain storm.,Tue Jul 28 2020 11:10:03 GMT+0200 (Ora legale dell’Europa centrale),1.60E+12,26.588.383.333.333.300,key_press_trials[1],23,none,next
1951,No,Press the spacebar to reveal the next words/sentence.,21784,Yes,17,,filler,correct,High School or lower,1.60E+12,N,167,TRUE,female,Y,N,N,B1,Was my bookshelf sturdy?,431|363|394|657|407|375|440,468|355|428|310|370|450|401|483,495|357|315|431|368|459|422|388|409|335|401|542|350|426|343,"The next day, it fell apart again.",I built a new bookshelf for my bedroom.,"It was very difficult to do, because I lost the instructions for putting it together.",Tue Jul 28 2020 11:10:03 GMT+0200 (Ora legale dell’Europa centrale),1.60E+12,26.588.383.333.333.300,key_press_trials[1],24,none,next
1951,No,Press the spacebar to reveal the next words/sentence.,25700,Yes,17,,literal_weak,correct,High School or lower,1.60E+12,N,167,FALSE,female,Y,N,N,B1,Were all of my bottles of wine safe in the basement?,613|526|415|435|452|392|374|359|337,2545|482|519|394|4111|419|400|673|343|457,758|396|408|360|417|417|535|556|477,The rest were safe but I was still upset.,"After my house was burglarized, I briefly checked the basement.",Only some of the bottles of Chardonnay were missing.,Tue Jul 28 2020 11:10:03 GMT+0200 (Ora legale dell’Europa centrale),1.60E+12,26.588.383.333.333.300,key_press_trials[1],25,none,next
1951,No,Press the spacebar to reveal the next words/sentence.,21369,Yes,17,,filler,correct,High School or lower,1.60E+12,Y,167,TRUE,female,Y,N,Y,B1,Is tonight Sunday?,477|317|396|374|320|362|349|420|350|377|303|556|379|323|298,352|325|365|331|344|321|378|383|320|317|332|459|308|370|318|312|343,373|320|368|334|326|338|328|323|335,"After a long day of study and rest, cards are the perfect way to relax.","I love to play card games with my friends, and we are going to play Hearts tonight.",We always enjoy playing a game on Sunday evening.,Tue Jul 28 2020 11:10:03 GMT+0200 (Ora legale dell’Europa centrale),1.60E+12,26.588.383.333.333.300,key_press_trials[1],26,none,next
1951,No,Press the spacebar to reveal the next words/sentence.,22053,Yes,17,,cancel_strong,correct,High School or lower,1.60E+12,Y,167,FALSE,female,Y,N,Y,B1,Was there a school bus sitting in the parking lot?,410|714|341|358|323|377|281|273|343|348|377|300|354|370,423|335|299|1035|482|352|289|309|333|362|357,448|358|342|368|369|395,"In fact, they all were so the cost to repair it would be enormous.","In the school parking lot, I carefully inspected an old bus.",Some of its tires were flat.,Tue Jul 28 2020 11:10:03 GMT+0200 (Ora legale dell’Europa centrale),1.60E+12,26.588.383.333.333.300,key_press_trials[1],27,none,next
1951,No,Press the spacebar to reveal the next words/sentence.,12525,Yes,17,,filler,incorrect,High School or lower,1.60E+12,N,167,TRUE,female,Y,N,Y,B1,Do I like cherry gumdrops?,644,533|371|285|298|570,379|377|337|413|414|344|341|323|414|315,,I can't stand fruit-flavored candy.,"I make exceptions for lemon lollipops and chewy candy, though.",Tue Jul 28 2020 11:10:03 GMT+0200 (Ora legale dell’Europa centrale),1.60E+12,26.588.383.333.333.300,key_press_trials[1],28,none,next
1951,No,Press the spacebar to reveal the next words/sentence.,30436,Yes,17,,anaphor_strong,correct,High School or lower,1.60E+12,N,167,FALSE,female,Y,N,N,B1,Had the store sold out all of its leather couches before the furniture sale?,453|363|363|352|348|342|325|368|365|760|458|392|437|392,558|318|344|431|998|726|325|366|636|374|384|320,494|384|363|354|457|430|351|395,The rest were going to be stored in the warehouse until the following season.,"After the furniture sale, I catalogued all the merchandise in the store.",Some of the leather couches had been sold.,Tue Jul 28 2020 11:10:03 GMT+0200 (Ora legale dell’Europa centrale),1.60E+12,26.588.383.333.333.300,key_press_trials[1],29,none,next
1951,No,Press the spacebar to reveal the next words/sentence.,14320,Yes,17,,filler,correct,High School or lower,1.60E+12,Y,167,TRUE,female,Y,N,Y,B1,Do I wash my favorite shirt every week?,315|291|302|301|300|313|324|300|323|287,524|424|440|430|383|411|318,357|309|348|264|311|294|303|312|257|322|285,I always wash my shirts before I wear them again.,I wear my favorite shirt every week.,I make sure to wash some of my clothes each week.,Tue Jul 28 2020 11:10:03 GMT+0200 (Ora legale dell’Europa centrale),1.60E+12,26.588.383.333.333.300,key_press_trials[1],30,none,next
1951,No,Press the spacebar to reveal the next words/sentence.,18155,Yes,17,,cancel_weak,correct,High School or lower,1.60E+12,Y,167,FALSE,female,Y,N,Y,B1,Was it dangerous for the residents to stay in town?,409|346|319|303|310|288|360|344|723|308|364|351|330,450|394|347|513|408|563|438|440|357|382|352,392|418|478|391|425|371,"In fact, they all did and, as a result, they survived the storm.","Before the hurricane landed, I volunteered to help out in town.",Some of the residents had evacuated.,Tue Jul 28 2020 11:10:03 GMT+0200 (Ora legale dell’Europa centrale),1.60E+12,26.588.383.333.333.300,key_press_trials[1],31,none,next
1951,No,Press the spacebar to reveal the next words/sentence.,25238,Yes,17,,filler,correct,High School or lower,1.60E+12,Y,167,TRUE,female,Y,N,Y,B1,Does Terry Pratchett write fantasy books?,536|877|585|916|428|447,425|408|465|448|495|363,398|433|412|4624|782|916,His stories are funny and sarcastic.,I read fantasy novels every week.,I enjoy Terry Pratchett's novels especially.,Tue Jul 28 2020 11:10:03 GMT+0200 (Ora legale dell’Europa centrale),1.60E+12,26.588.383.333.333.300,key_press_trials[1],32,none,next
1951,No,Press the spacebar to reveal the next words/sentence.,21721,Yes,17,,anaphor_weak,incorrect,High School or lower,1.60E+12,Y,167,FALSE,female,Y,N,N,B1,Did my client have real-estate investments?,340|354|323|298|400|352|405|347|430|431|361,458|602|549|562|371|967|533|602|386,490|662|367|369|735|494|322,The others were successful in spite of the recent economic downturn.,"At my client's request, I skimmed the investment report.",Some of the real-estate investments lost money.,Tue Jul 28 2020 11:10:03 GMT+0200 (Ora legale dell’Europa centrale),1.60E+12,26.588.383.333.333.300,key_press_trials[1],33,none,next
1951,No,Press the spacebar to reveal the next words/sentence.,14338,Yes,17,,filler,correct,High School or lower,1.60E+12,Y,167,TRUE,female,Y,N,Y,B1,Did I still read a book?,561,429|795|392|314|382|286|759|313|384|304|326,359|450|383|408|322|401|352|330|295|323,,"After dinner, I listen to Celtic music and read a book.",Today I listened to classic rock instead of Celtic music.,Tue Jul 28 2020 11:10:03 GMT+0200 (Ora legale dell’Europa centrale),1.60E+12,26.588.383.333.333.300,key_press_trials[1],34,none,next
1951,No,Press the spacebar to reveal the next words/sentence.,25326,Yes,17,,literal_strong,incorrect,High School or lower,1.60E+12,Y,167,FALSE,female,Y,N,N,B1,Did anyone in my family cook spicy food last week?,1285|871|422|375|571|408|359|367|331|605|456,661|479|679|1396|435|476|1625|413|445|423,496|545|392|461|437|513|353,The rest were mild and I found them to be bland.,"Last week, I tasted every dish at a family potluck.",Only some of the dishes were spicy.,Tue Jul 28 2020 11:10:03 GMT+0200 (Ora legale dell’Europa centrale),1.60E+12,26.588.383.333.333.300,key_press_trials[1],35,none,next
1951,No,Press the spacebar to reveal the next words/sentence.,16911,Yes,17,,filler,correct,High School or lower,1.60E+12,N,167,TRUE,female,Y,N,N,B1,Did my head get sunburned?,818,564|392|317|323|396|483|398|348|359|426|366|398|371,409|342|339|361|405|493|397|402|373|363|374|408,,"Because of the nice weather, I put the top down on my convertible.","I was afraid of sunburning my head, so I wore a hat.",Tue Jul 28 2020 11:10:03 GMT+0200 (Ora legale dell’Europa centrale),1.60E+12,26.588.383.333.333.300,key_press_trials[1],36,none,next
1951,No,Press the spacebar to reveal the next words/sentence.,19502,Yes,17,,literal_weak,correct,High School or lower,1.60E+12,N,167,FALSE,female,Y,N,N,B1,Were the teachers insensitive to the feelings of the students?,506|456|351|336|334|365|338|389|364|362|350|353|315|363|336|341|354,370|355|479|377|332|358|364|594|443|380|361,390|450|361|363|450|494|345|389,The others were not invited to attend because the teachers didn't want anyone to feel left out.,My daughter told me about the awards assembly at her school.,Only some of the honors students received prizes.,Tue Jul 28 2020 11:10:03 GMT+0200 (Ora legale dell’Europa centrale),1.60E+12,26.588.383.333.333.300,key_press_trials[1],37,none,next
1951,No,Press the spacebar to reveal the next words/sentence.,16788,Yes,17,,filler,correct,High School or lower,1.60E+12,Y,167,TRUE,female,Y,N,Y,B1,Was I in class during the thunderstorm?,380|368|435|408|358|378|361|346|465|476|396|394,1720|480|357|548|464,388|462|376|625|362|332,My professor became annoyed because he could not speak over the thunder.,There was a thunderstorm today.,I think that thunderstorms are romantic.,Tue Jul 28 2020 11:10:03 GMT+0200 (Ora legale dell’Europa centrale),1.60E+12,26.588.383.333.333.300,key_press_trials[1],38,none,next
1951,No,Press the spacebar to reveal the next words/sentence.,22037,Yes,17,,cancel_strong,incorrect,High School or lower,1.60E+12,Y,167,FALSE,female,Y,N,N,B1,Did the library's reference section contain dictionaries?,384|340|337|340|369|386|390|387|582|413|353|372,618|353|321|371|325|380|439|466|368|391|434|365|535|364|310|377,378|352|300|312|361|343|365,"In fact, they all were which made my job much more difficult.","As the new librarian, it was my responsibility to catalog every book in the reference section.",Some of the dictionaries were labeled incorrectly.,Tue Jul 28 2020 11:10:03 GMT+0200 (Ora legale dell’Europa centrale),1.60E+12,26.588.383.333.333.300,key_press_trials[1],39,none,next
1951,No,Press the spacebar to reveal the next words/sentence.,28425,Yes,17,,filler,correct,High School or lower,1.60E+12,Y,167,TRUE,female,Y,N,Y,B1,Do I prefer New England weather?,340|354|417|370|422|389|355|349|329,609|687|530|399|312|468|520|2340|505|410|304,604|305|637|939|279|317|427|326|361|282,New England weather is always colder in the summer.,This summer I will not have air conditioning in my house.,"I prefer the weather in Massachusetts, where it is colder.",Tue Jul 28 2020 11:10:03 GMT+0200 (Ora legale dell’Europa centrale),1.60E+12,26.588.383.333.333.300,key_press_trials[1],40,none,next
1951,No,Press the spacebar to reveal the next words/sentence.,23511,Yes,17,,anaphor_strong,correct,High School or lower,1.60E+12,Y,167,FALSE,female,Y,N,Y,B1,Are there liquid nitrogen containers in the laboratory?,400|346|349|350|347|328|284|367|359|432|468,419|350|301|568|379|317|427|315|368|345|402|322|348|310|310|359|350|374|320,470|393|357|338|311|347|483|370|361|307|300,The others were normal but I decided to order more anyway.,"To keep the laboratory well stocked, I write down exactly how much of the chemicals are used every night.","Today, some of the liquid nitrogen containers needed to be refilled.",Tue Jul 28 2020 11:10:03 GMT+0200 (Ora legale dell’Europa centrale),1.60E+12,26.588.383.333.333.300,key_press_trials[1],41,none,next
1951,No,Press the spacebar to reveal the next words/sentence.,24632,Yes,17,,filler,correct,High School or lower,1.60E+12,N,167,TRUE,female,Y,N,N,B1,Did the painting conform to my expectations?,386|407|371|406|392|390|361|418|373|387,413|386|379|294|347|367|407|389,731|427|327|378|373|325|328|374|364|374|366|418|364|414|346|387,It was much bigger than I thought it would be.,Last summer I went to Chicago on vacation.,"When I was there, I visited the Art Institute and saw a painting by Georges Seurat.",Tue Jul 28 2020 11:10:03 GMT+0200 (Ora legale dell’Europa centrale),1.60E+12,26.588.383.333.333.300,key_press_trials[1],42,none,next
1951,No,Press the spacebar to reveal the next words/sentence.,28397,Yes,17,,cancel_weak,correct,High School or lower,1.60E+12,Y,167,FALSE,female,Y,N,Y,B1,Did the manager have a meeting with any of the accountants?,1141|556|744|1267|844|365|308|429|368|857|438|433|466|400|453|326,384|316|347|319|345|291|304|401|717|1861|477|1464,352|442|323|339|578|365|352,"In fact, they all were in order to communicate how budget cutbacks were crippling their division.","This morning, I heard about at an important meeting with the manager.",Some of the company's accountants were there.,Tue Jul 28 2020 11:10:03 GMT+0200 (Ora legale dell’Europa centrale),1.60E+12,26.588.383.333.333.300,key_press_trials[1],43,none,next
1951,No,Press the spacebar to reveal the next words/sentence.,21984,Yes,17,,filler,correct,High School or lower,1.60E+12,Y,167,TRUE,female,Y,N,Y,B1,Did I see a doctor after I started feeling ill?,321|854|318|345|524|507|394|373|336|334|322|331|343,418|471|323|646|384|454|400|384|332|371|419|389|488|358|306,403|347|327|334|358|310|320|334|341|339|470,"Luckily, there are drugs which effectively treat it, and I am now healthy.","After I got back from my trip to the equator, I started feeling very ill.",My doctor told me I had contracted a rare tropical disease.,Tue Jul 28 2020 11:10:03 GMT+0200 (Ora legale dell’Europa centrale),1.60E+12,26.588.383.333.333.300,key_press_trials[1],44,none,next
1951,No,Press the spacebar to reveal the next words/sentence.,20739,Yes,17,,anaphor_weak,correct,High School or lower,1.60E+12,N,167,FALSE,female,Y,N,N,B1,Did my high_school football team win every game?,449|547|401|421|460|726|401|389|368|390|429,360|334|340|518|360|582|517|503|373|417|477|472|400|348|376|327|343,390|412|352|394|449|332,The others were blowouts which made the games boring to watch.,I ran into a friend who started telling how my old high_school football team did last season.,Some of their losses were close.,Tue Jul 28 2020 11:10:03 GMT+0200 (Ora legale dell’Europa centrale),1.60E+12,26.588.383.333.333.300,key_press_trials[1],45,none,next
1951,No,Press the spacebar to reveal the next words/sentence.,25078,Yes,17,,filler,correct,High School or lower,1.60E+12,Y,167,TRUE,female,Y,N,Y,B1,Was I lucky to have noticed the object in the water?,453|545|386|307|477|352|356|388|357|471|371|376|311,363|658|364|380|610|446|417|825|400|443|419|468|433|379|460,336|373|364|741|433|575|359|310|309|1521|343,"Nobody claimed it when I asked the people nearby, so I kept it.",I was swimming laps in my local pool when I noticed something at the bottom.,"When I dove down, I realized it was a twenty-dollar bill.",Tue Jul 28 2020 11:10:03 GMT+0200 (Ora legale dell’Europa centrale),1.60E+12,26.588.383.333.333.300,key_press_trials[1],46,none,next
1951,No,Press the spacebar to reveal the next words/sentence.,21860,Yes,17,,literal_strong,correct,High School or lower,1.60E+12,N,167,FALSE,female,Y,N,N,B1,Was the bus empty during the accident?,421|316|353|382|362|360|405|352|353|347|351|347|343|354,391|755|417|419|620|472|427|350|464|416|496|408|343|301|359,411|357|375|341|342|360|347|329,The others were killed on impact and there was no opportunity to save them.,I was the chief medic overseeing the bus accident on the side of the highway.,Only some of the passengers were still alive.,Tue Jul 28 2020 11:10:03 GMT+0200 (Ora legale dell’Europa centrale),1.60E+12,26.588.383.333.333.300,key_press_trials[1],47,none,next
1951,No,Press the spacebar to reveal the next words/sentence.,14913,Yes,17,,filler,incorrect,High School or lower,1.60E+12,Y,167,TRUE,female,Y,N,N,B1,Is the play a musical?,364|325|351|427|364|358|394|400|339,402|345|360|372|368|318|323,354|328|395|403|320|388|351,If the actors could sing it would sound nicer.,Over the weekend I saw a play.,The student theatre group put it on.,Tue Jul 28 2020 11:10:03 GMT+0200 (Ora legale dell’Europa centrale),1.60E+12,26.588.383.333.333.300,key_press_trials[1],48,none,next
1951,No,Press the spacebar to reveal the next words/sentence.,36164,Yes,17,,filler,correct,High School or lower,1.60E+12,N,167,TRUE,female,Y,N,N,B1,Did the writer ask me before inserting the slur into his article?,396|345|458|382|398|367|374|360|341|347|350|290|344|331|334,424|366|374|345|381|326|494|2892|415|338|355|368|361|330|333|341|9421|449|421|396|357,400|412|409|386|396|368|368|785|354|351|367|354|325,I issued a long apology on the front page of the paper the next day.,"As the editor of the newspaper, I have to make sure that the paper does not publish anything that is offensive.","Unfortunately, a disgruntled writer slipped a racial slur into an article last week.",Tue Jul 28 2020 11:10:03 GMT+0200 (Ora legale dell’Europa centrale),1.60E+12,26.588.383.333.333.300,key_press_trials[1],49,none,next
1950,No,Press the spacebar to reveal the next words/sentence.,32059,Yes,27,none,cancel_strong,correct,Bachelor or Master,1.60E+12,Y,167,FALSE,male,Y,N,Y,B1,Were any of my predictions confirmed by my research?,681|451|487|621|537|432|696|540|498|602|627|529|458|529,571|498|441|661|596|476|495|815|704|774|875|569|620|447|472|602,511|518|517|2278|613|559,"In fact, they all were so I should be able to publish the results.","To check on the progress of my research, I meticulously recorded the results of the experiments.",Some of my predictions were correct.,Tue Jul 28 2020 10:53:48 GMT+0200 (Ora legale dell’Europa centrale),1.60E+12,67.22.00,key_press_trials[2],1,none,next
1950,No,Press the spacebar to reveal the next words/sentence.,33619,Yes,27,none,filler,correct,Bachelor or Master,1.60E+12,N,167,TRUE,male,Y,N,N,B1,Did my uncle beat me by a lot of points?,499|683|1651|676|445|511|365|601|484|411|645|393|381|418|600,682|1132|1684|2250|2269|547|457|1152,525|590|438|494|461|575|572|725|853|497|786,When we tallied up the scores I discovered that he beat me by one point.,I enjoy playing board games with my uncle.,"The last time we played together, I thought I had won.",Tue Jul 28 2020 10:53:48 GMT+0200 (Ora legale dell’Europa centrale),1.60E+12,67.22.00,key_press_trials[2],2,none,next
1950,No,Press the spacebar to reveal the next words/sentence.,39352,Yes,27,none,cancel_weak,incorrect,Bachelor or Master,1.60E+12,Y,167,FALSE,male,Y,N,N,B1,Are there liquid nitrogen containers in the laboratory?,457|452|417|525|421|704|578|455|477|426|577|450|404|421|576|686,753|634|496|552|420|714|498|657|469|452|994|1534|635|805|588,426|483|424|358|465|1018|462|633|416|370|574,"In fact, they all did which confused me because we hadn't used a lot this morning.","To keep the laboratory well stocked, I occasionally look at which chemicals are being used.","Today, some of the liquid nitrogen containers needed to be refilled.",Tue Jul 28 2020 10:53:48 GMT+0200 (Ora legale dell’Europa centrale),1.60E+12,67.22.00,key_press_trials[2],3,none,next
1950,No,Press the spacebar to reveal the next words/sentence.,25585,Yes,27,none,filler,incorrect,Bachelor or Master,1.60E+12,N,167,TRUE,male,Y,N,Y,B1,Does everyone know that brushing teeth prevents cavities?,397|431|584|452|800|403|370|390|489,523|531|517|487|393|419|537|470|424|388|709|668,458|519|473|974|739|652|449|586|507|708|466,I will try to brush my teeth more frequently.,Tomorrow I will go to the dentist to have a cavity filled.,"Everyone knows that flossing prevents cavities, but I haven't flossed enough.",Tue Jul 28 2020 10:53:48 GMT+0200 (Ora legale dell’Europa centrale),1.60E+12,67.22.00,key_press_trials[2],4,none,next
1950,No,Press the spacebar to reveal the next words/sentence.,30953,Yes,27,none,literal_weak,correct,Bachelor or Master,1.60E+12,Y,167,FALSE,male,Y,N,Y,B1,Did the math textbook have problems for readers to solve?,467|380|440|1521|493|442|1091|535|470|1075,504|436|840|817|506|540|470|1431|479|790|474|466|867,473|432|402|417|472|476|585,The others were straightforward and the reviewer liked the balance.,"At a friend's suggestion, I read a review of a new math textbook.",Only some of its problems were difficult.,Tue Jul 28 2020 10:53:48 GMT+0200 (Ora legale dell’Europa centrale),1.60E+12,67.22.00,key_press_trials[2],5,none,next
1950,No,Press the spacebar to reveal the next words/sentence.,30013,Yes,27,none,filler,correct,Bachelor or Master,1.60E+12,N,167,TRUE,male,Y,N,N,B1,Did my knots effectively trap the performer?,324|542|411|422|542|456|618|465|428|454|618|389|555,457|485|555|460|427|431|544|1904|783|560|459|479,370|402|544|391|413|505|375|403|545|431|445|470|350|412|1047|401|430,"I thought I tied them very tightly, but she still managed to escape.","In the city, I saw a street performer who did magic tricks.","She picked me as a volunteer for her act, and asked me to knot ropes around her.",Tue Jul 28 2020 10:53:48 GMT+0200 (Ora legale dell’Europa centrale),1.60E+12,67.22.00,key_press_trials[2],6,none,next
1950,No,Press the spacebar to reveal the next words/sentence.,28029,Yes,27,none,literal_strong,correct,Bachelor or Master,1.60E+12,Y,167,FALSE,male,Y,N,Y,B1,Has my portfolio lost value this year?,479|474|379|470|402|530|391|512|433|536|517|400|443|664,582|694|712|424|548|588|461|415|421|785|445|488|689|567|473|503,391|401|438|419|417|457|453,The others were relatively steady but my portfolio was still down for the year.,"While eating breakfast, I had lots of time to pore over the stock prices from yesterday.",Only some of my stocks went up.,Tue Jul 28 2020 10:53:48 GMT+0200 (Ora legale dell’Europa centrale),1.60E+12,67.22.00,key_press_trials[2],7,none,next
1950,No,Press the spacebar to reveal the next words/sentence.,37883,Yes,27,none,filler,correct,Bachelor or Master,1.60E+12,Y,167,TRUE,male,Y,N,Y,B1,Did I realize that New York City is in the United States?,413|440|410|531|439|595|354|398|428,504|398|752|1039|596|493|378|489|501|401|429|441|428|582|854,1743|754|463|373|6175|429|621|695|661|686|344|424|510|433|541|460|470|567|400|573,"Luckily, the United Nations is based in New York.",Today the United Nations announced in New York City a new plan for world peace.,I would like to be a United Nations ambassador for the United States but don't want to travel to Europe.,Tue Jul 28 2020 10:53:48 GMT+0200 (Ora legale dell’Europa centrale),1.60E+12,67.22.00,key_press_trials[2],8,none,next
1950,No,Press the spacebar to reveal the next words/sentence.,25656,Yes,27,none,anaphor_strong,correct,Bachelor or Master,1.60E+12,N,167,FALSE,male,Y,N,N,B1,Were all of my bottles of wine safe in the basement?,418|405|619|419|396|348|461|449|652,628|475|769|669|961|471|511|628|616|615|1061,420|379|341|550|457|819|466|573,The rest were safe but I was still upset.,"After my house was burglarized, I carefully inventoried my wine collection.",Some of the bottles of Chardonnay were missing.,Tue Jul 28 2020 10:53:48 GMT+0200 (Ora legale dell’Europa centrale),1.60E+12,67.22.00,key_press_trials[2],9,none,next
1950,No,Press the spacebar to reveal the next words/sentence.,19584,Yes,27,none,filler,correct,Bachelor or Master,1.60E+12,Y,167,TRUE,male,Y,N,Y,B1,Do I wash my sports clothes each week?,420|395|430|388|553|356|366|317|421|371|380|462,628|705|607|453|477|918,332|403|502|859|413|532,My uniform gets sweaty and dirty if I wear it only once.,Each weekend I do my laundry.,I have sports practice each week.,Tue Jul 28 2020 10:53:48 GMT+0200 (Ora legale dell’Europa centrale),1.60E+12,67.22.00,key_press_trials[2],10,none,next
1950,No,Press the spacebar to reveal the next words/sentence.,21346,Yes,27,none,anaphor_weak,correct,Bachelor or Master,1.60E+12,N,167,FALSE,male,Y,N,N,B1,Were all of the gold watches genuine?,296|272|346|362|319|336|497|347|452|682|431|768,501|453|448|386|382|497|526|1230|418|429|608|458|805,445|385|324|560|549|802|630,"The rest were real, but the company is still planning to sue.","As part of my job, I helped unload the new shipment of jewelry.",Some of the gold watches were fakes.,Tue Jul 28 2020 10:53:48 GMT+0200 (Ora legale dell’Europa centrale),1.60E+12,67.22.00,key_press_trials[2],11,none,next
1950,No,Press the spacebar to reveal the next words/sentence.,24817,Yes,27,none,filler,correct,Bachelor or Master,1.60E+12,N,167,TRUE,male,Y,N,N,B1,Do I still enjoy raspberries?,2310,459|419|829|709|458|479|953,408|367|396|462|340|384|337|404|431|424|347|371|416|405|391|781|586|418|497,,My favorite fruit used to be raspberries.,"When I was younger, I saw a bug in one of my raspberries, and I haven't eaten one since.",Tue Jul 28 2020 10:53:48 GMT+0200 (Ora legale dell’Europa centrale),1.60E+12,67.22.00,key_press_trials[2],12,none,next
1950,No,Press the spacebar to reveal the next words/sentence.,25579,Yes,27,none,cancel_strong,correct,Bachelor or Master,1.60E+12,Y,167,FALSE,male,Y,N,Y,B1,Did anyone in my family cook spicy food last week?,324|408|404|364|311|370|542|463|363|452|527,565|462|558|1294|516|512|453|545|544|993,506|416|355|545|411|473,"In fact, they all were but fortunately I love spicy food.","Last week, I tasted every dish at a family potluck.",Some of the dishes were spicy.,Tue Jul 28 2020 10:53:48 GMT+0200 (Ora legale dell’Europa centrale),1.60E+12,67.22.00,key_press_trials[2],13,none,next
1950,No,Press the spacebar to reveal the next words/sentence.,35811,Yes,27,none,filler,correct,Bachelor or Master,1.60E+12,N,167,TRUE,male,Y,N,N,B1,Did the writer ask me before inserting the slur into his article?,292|502|357|390|376|382|422|421|352|388|352|435|505|445|634,571|432|377|348|360|597|371|360|401|440|2078|695|539|523|413|622|622|518|458|722|1000,812|421|921|316|403|466|473|374|455|395|394|387|538,I issued a long apology on the front page of the paper the next day.,"As the editor of the newspaper, I have to make sure that the paper does not publish anything that is offensive.","Unfortunately, a disgruntled writer slipped a racial slur into an article last week.",Tue Jul 28 2020 10:53:48 GMT+0200 (Ora legale dell’Europa centrale),1.60E+12,67.22.00,key_press_trials[2],14,none,next
1950,No,Press the spacebar to reveal the next words/sentence.,21158,Yes,27,none,cancel_weak,correct,Bachelor or Master,1.60E+12,N,167,FALSE,male,Y,N,N,B1,Did my parents save money by entirely avoiding expensive hotels?,332|336|419|350|437|405|446|411|481|638|481,494|433|606|432|545|787|437|568|410|433|451|598,347|412|382|402|495|651,"In fact, they all were because my family loves luxurious holidays.","When they returned, my family told me about their trip to Europe.",Some of their hotels were expensive.,Tue Jul 28 2020 10:53:48 GMT+0200 (Ora legale dell’Europa centrale),1.60E+12,67.22.00,key_press_trials[2],15,none,next
1950,No,Press the spacebar to reveal the next words/sentence.,18664,Yes,27,none,filler,incorrect,Bachelor or Master,1.60E+12,Y,167,TRUE,male,Y,N,N,B1,Am I well yet?,2509,441|458|541|767|539|458|1854|438|600,359|361|495|621|785,,I got sick with a cold over the weekend.,I am still taking decongestants.,Tue Jul 28 2020 10:53:48 GMT+0200 (Ora legale dell’Europa centrale),1.60E+12,67.22.00,key_press_trials[2],16,none,next
1950,No,Press the spacebar to reveal the next words/sentence.,32152,Yes,27,none,literal_weak,correct,Bachelor or Master,1.60E+12,Y,167,FALSE,male,Y,N,Y,B1,Did the library's reference section contain dictionaries?,370|543|460|588|545|741|756|581|462|565|596|743|500|545|479|501|476,598|468|832|452|523|522|1289|465|552|452|885|513|646|906,377|440|397|374|630|480|1178|600,The others were labeled appropriately though a few of them had been shelved in the wrong place.,The librarian told me about how annoying it was to reorganize the reference section.,Only some of the dictionaries were labeled incorrectly.,Tue Jul 28 2020 10:53:48 GMT+0200 (Ora legale dell’Europa centrale),1.60E+12,67.22.00,key_press_trials[2],17,none,next
1950,No,Press the spacebar to reveal the next words/sentence.,34663,Yes,27,none,filler,correct,Bachelor or Master,1.60E+12,Y,167,TRUE,male,Y,N,Y,B1,Is tonight Sunday?,381|404|455|365|365|401|374|373|415|470|404|398|445|432|538,390|385|473|590|407|432|375|376|367|396|399|341|368|473|467|531|1199,483|599|790|506|419|432|411|545|484,"After a long day of study and rest, cards are the perfect way to relax.","I love to play card games with my friends, and we are going to play Hearts tonight.",We always enjoy playing a game on Sunday evening.,Tue Jul 28 2020 10:53:48 GMT+0200 (Ora legale dell’Europa centrale),1.60E+12,67.22.00,key_press_trials[2],18,none,next
1950,No,Press the spacebar to reveal the next words/sentence.,19935,Yes,27,none,literal_strong,correct,Bachelor or Master,1.60E+12,Y,167,FALSE,male,Y,N,Y,B1,Was it dangerous for the residents to stay in town?,311|416|337|383|422|331|384|807|452|609,420|400|845|638|504|646|483|450|521|596,409|397|394|368|473|427|545,The rest stayed at home and foolishly risked their lives.,"Before the hurricane landed, I checked every house in town.",Only some of the residents had evacuated.,Tue Jul 28 2020 10:53:48 GMT+0200 (Ora legale dell’Europa centrale),1.60E+12,67.22.00,key_press_trials[2],19,none,next
1950,No,Press the spacebar to reveal the next words/sentence.,18418,Yes,27,none,filler,correct,Bachelor or Master,1.60E+12,Y,167,TRUE,male,Y,N,Y,B1,Was I in class during the thunderstorm?,396|419|383|452|476|481|510|432|458|412|437|524,428|426|443|711|785,386|401|429|736|423|501,My professor became annoyed because he could not speak over the thunder.,There was a thunderstorm today.,I think that thunderstorms are romantic.,Tue Jul 28 2020 10:53:48 GMT+0200 (Ora legale dell’Europa centrale),1.60E+12,67.22.00,key_press_trials[2],20,none,next
1950,No,Press the spacebar to reveal the next words/sentence.,29175,Yes,27,none,anaphor_strong,incorrect,Bachelor or Master,1.60E+12,N,167,FALSE,male,Y,N,Y,B1,Did the bowling ball leave any of the steps undamaged?,460|630|529|511|887|365|571|519|435|545|614,435|473|655|427|419|398|795|493|1062|1117|553|874|967,471|407|398|478|403|495,The others were fine so the repairs shouldn't be too expensive.,I examined the damage after I dropped a bowling ball down the stairs.,Some of the steps were damaged.,Tue Jul 28 2020 10:53:48 GMT+0200 (Ora legale dell’Europa centrale),1.60E+12,67.22.00,key_press_trials[2],21,none,next
1950,No,Press the spacebar to reveal the next words/sentence.,16360,Yes,27,none,filler,correct,Bachelor or Master,1.60E+12,Y,167,TRUE,male,Y,N,Y,B1,Does Terry Pratchett write fantasy books?,399|403|340|439|353|491,576|467|566|468|508|380,355|369|620|645|466|476,His stories are funny and sarcastic.,I read fantasy novels every week.,I enjoy Terry Pratchett's novels especially.,Tue Jul 28 2020 10:53:48 GMT+0200 (Ora legale dell’Europa centrale),1.60E+12,67.22.00,key_press_trials[2],22,none,next
1950,No,Press the spacebar to reveal the next words/sentence.,24719,Yes,27,none,anaphor_weak,correct,Bachelor or Master,1.60E+12,Y,167,FALSE,male,Y,N,Y,B1,Did the manager have a meeting with any of the accountants?,312|403|355|355|447|362|370|353|475|497|526|584|530|399|445|488|432|663,405|417|448|393|439|404|466|415|597|402|391|516,429|329|419|447|1403|487|691,The rest were missing because they had to audit the company's finances before the end of the quarter.,"This morning, I heard about at an important meeting with the manager.",Some of the company's accountants were there.,Tue Jul 28 2020 10:53:48 GMT+0200 (Ora legale dell’Europa centrale),1.60E+12,67.22.00,key_press_trials[2],23,none,next
1950,No,Press the spacebar to reveal the next words/sentence.,23582,Yes,27,none,filler,incorrect,Bachelor or Master,1.60E+12,N,167,TRUE,male,Y,N,Y,B1,Would I rather be more fuel efficient?,1093,380|461|633|411|422|452|473|435|532|434|475,637|445|470|975|430|449|407|422|405,,I enjoy driving my car when I am home from school.,"Motorcycles use less fuel, but they are more dangerous.",Tue Jul 28 2020 10:53:48 GMT+0200 (Ora legale dell’Europa centrale),1.60E+12,67.22.00,key_press_trials[2],24,none,next
1950,No,Press the spacebar to reveal the next words/sentence.,20490,Yes,27,none,cancel_strong,correct,Bachelor or Master,1.60E+12,N,167,FALSE,male,Y,N,N,B1,Was the bus empty during the accident?,327|349|401|332|327|314|570|346|658|572,470|392|416|476|578|619|563|505|431|404|368|403|420|406|570,411|433|413|492|409|475|620,"In fact, they all were and none were critically injured.",I was the chief medic overseeing the bus accident on the side of the highway.,Some of the passengers were still alive.,Tue Jul 28 2020 10:53:48 GMT+0200 (Ora legale dell’Europa centrale),1.60E+12,67.22.00,key_press_trials[2],25,none,next
1950,No,Press the spacebar to reveal the next words/sentence.,29426,Yes,27,none,filler,correct,Bachelor or Master,1.60E+12,N,167,TRUE,male,Y,N,N,B1,"While the song was on, was I paying attention to my surroundings?",467|781|449|333|383|367|422|396|405|351|437|313|503|422|705|399|476,428|558|311|6064|556|370|405|559|593|454|337|329|467,268|405|403|420|359|401|534,"Afterwards, I realized that my windows had been open and other drivers had been staring at me.","When I was driving to work, my favorite song came on the radio.",I started to sing along really loudly.,Tue Jul 28 2020 10:53:48 GMT+0200 (Ora legale dell’Europa centrale),1.60E+12,67.22.00,key_press_trials[2],26,none,next
1950,No,Press the spacebar to reveal the next words/sentence.,60695,Yes,27,none,cancel_weak,correct,Bachelor or Master,1.60E+12,N,167,FALSE,male,Y,N,N,B1,Were my office's computers safe from damaging software?,370|404|354|289|263|539|278|339|279|521|497|369|417,451|461|507|590|382|393|541|440|510|386|480|411|381|399,391|386|326|461|370|391,"In fact, they all were and the virus nearly destroyed the whole system.","As the office's main technician, I had been alerted to the dangerous new virus.",Some of our computers were infected.,Tue Jul 28 2020 10:53:48 GMT+0200 (Ora legale dell’Europa centrale),1.60E+12,67.22.00,key_press_trials[2],27,none,next
1950,No,Press the spacebar to reveal the next words/sentence.,24171,Yes,27,none,filler,correct,Bachelor or Master,1.60E+12,Y,167,TRUE,male,Y,N,Y,B1,Are there multiple reasons why I prefer to run in the morning?,307|518|1317|393|358|407|488,405|284|416|362|302|429|505|374|397|377|372|370|332|348|424|348|468,294|387|476|337|352|397|332|442|353|418|370|389|404|321|450,"Also, the paths are not very crowded.","In the mornings, I go jogging because that is when I can fit it into my schedule.",I like exercising then because the weather is cooler than it is during the afternoon.,Tue Jul 28 2020 10:53:48 GMT+0200 (Ora legale dell’Europa centrale),1.60E+12,67.22.00,key_press_trials[2],28,none,next
1950,No,Press the spacebar to reveal the next words/sentence.,24151,Yes,27,none,literal_weak,correct,Bachelor or Master,1.60E+12,Y,167,FALSE,male,Y,N,Y,B1,Was there a dog in the veterinary clinic?,402|427|305|298|348|350|424|366|354|344|854|396|699|532,412|422|503|474|432|454|350|1441|452|1152|419|367|465|738,355|488|348|331|427|771|444|476,The rest were intact so it should still be able to eat solid food.,"While working in the veterinary clinic, I caught a glimpse of a large bulldog.",Only some of the dog's teeth were missing.,Tue Jul 28 2020 10:53:48 GMT+0200 (Ora legale dell’Europa centrale),1.60E+12,67.22.00,key_press_trials[2],29,none,next
1950,No,Press the spacebar to reveal the next words/sentence.,24334,Yes,27,none,filler,correct,Bachelor or Master,1.60E+12,N,167,TRUE,male,Y,N,N,B1,Did the painting conform to my expectations?,277|374|301|346|933|312|476|364|371|565,360|476|413|351|374|535|339|515,213|684|455|728|373|462|353|412|600|366|383|412|1081|351|599|336,It was much bigger than I thought it would be.,Last summer I went to Chicago on vacation.,"When I was there, I visited the Art Institute and saw a painting by Georges Seurat.",Tue Jul 28 2020 10:53:48 GMT+0200 (Ora legale dell’Europa centrale),1.60E+12,67.22.00,key_press_trials[2],30,none,next
1950,No,Press the spacebar to reveal the next words/sentence.,24232,Yes,27,none,literal_strong,correct,Bachelor or Master,1.60E+12,N,167,FALSE,male,Y,N,N,B1,Had the store sold out all of its leather couches before the furniture sale?,393|406|329|371|439|355|387|422|372|374|480|394|439|414,438|401|679|432|385|700|381|463|710|407|446|1553,374|357|373|954|355|550|396|480|939,The rest were going to be stored in the warehouse until the following season.,"After the furniture sale, I catalogued all the merchandise in the store.",Only some of the leather couches had been sold.,Tue Jul 28 2020 10:53:48 GMT+0200 (Ora legale dell’Europa centrale),1.60E+12,67.22.00,key_press_trials[2],31,none,next
1950,No,Press the spacebar to reveal the next words/sentence.,19251,Yes,27,none,filler,incorrect,Bachelor or Master,1.60E+12,N,167,TRUE,male,Y,N,Y,B1,Will I eat in the dining hall?,360|278|489|352|380|435|362|481|483|401|504|668|462,455|347|349|565|370|466|359|402|385,348|362|380|402,"If I don't like what is being served, I will eat somewhere else.",Today the dining hall is serving salmon for dinner.,I don't like fish.,Tue Jul 28 2020 10:53:48 GMT+0200 (Ora legale dell’Europa centrale),1.60E+12,67.22.00,key_press_trials[2],32,none,next
1950,No,Press the spacebar to reveal the next words/sentence.,24524,Yes,27,none,anaphor_strong,correct,Bachelor or Master,1.60E+12,Y,167,FALSE,male,Y,N,Y,B1,Was there a school bus sitting in the parking lot?,332|408|995|265|370|338|319|381|342|378|371|416|385|421,480|385|1088|425|480|380|426|359|490|376|409,353|389|316|344|969|440,The others were fine so it would not cost too much to fix it.,"In the school parking lot, I carefully inspected an old bus.",Some of its tires were flat.,Tue Jul 28 2020 10:53:48 GMT+0200 (Ora legale dell’Europa centrale),1.60E+12,67.22.00,key_press_trials[2],33,none,next
1950,No,Press the spacebar to reveal the next words/sentence.,21380,Yes,27,none,filler,correct,Bachelor or Master,1.60E+12,N,167,TRUE,male,Y,N,N,B1,Do my parents always obey the law?,299|294|263|446|355|393|368|348|350|310|355|537,442|350|405|364|358|425|395|386|369|505|411|329|319|462|381|679|317|560,345|378|370|317|334|385|350|535,"I am worried about their decision, since they might go to prison.","When I talked to my parents yesterday, they told me that they did not pay taxes this year.",They have decided that all taxation is theft.,Tue Jul 28 2020 10:53:48 GMT+0200 (Ora legale dell’Europa centrale),1.60E+12,67.22.00,key_press_trials[2],34,none,next
1950,No,Press the spacebar to reveal the next words/sentence.,38110,Yes,27,none,anaphor_weak,correct,Bachelor or Master,1.60E+12,N,167,FALSE,male,Y,N,N,B1,Was the babysitter smoking pot instead of looking after my children?,296|376|375|645|332|406|375|411|479|579|1109|352|417|418|719,485|430|390|414|368|540|385|475|398|566|435|460|401|506,761|396|384|343|355|558|421|1378|560|453,"The others were untouched, but I was still concerned and decided to call her parents.","After the babysitter left, I went to my liquor collection and made a drink.",Some of my new bottles of peach schnapps were opened.,Tue Jul 28 2020 10:53:48 GMT+0200 (Ora legale dell’Europa centrale),1.60E+12,67.22.00,key_press_trials[2],35,none,next
1950,No,Press the spacebar to reveal the next words/sentence.,32556,Yes,27,none,filler,correct,Bachelor or Master,1.60E+12,N,167,TRUE,male,Y,N,N,B1,Had my phone rung during the show?,584|2103|1254|442|380|417|542|398|474|506|355|392|380|914|353|429|483|414|410|414|509|715,432|658|424|443|768|423|474|2741,305|392|324|397|388|637|473|450|474|325|529|411|442,"I couldn't even find it by calling it and listening for the ring, because I had turned it off before the performance.",I lost my cell phone at a theater.,"I looked under all the seats around me, but I didn't see it.",Tue Jul 28 2020 10:53:48 GMT+0200 (Ora legale dell’Europa centrale),1.60E+12,67.22.00,key_press_trials[2],36,none,next
1950,No,Press the spacebar to reveal the next words/sentence.,24151,Yes,27,none,cancel_strong,correct,Bachelor or Master,1.60E+12,N,167,FALSE,male,Y,N,N,B1,Did my high_school football team win every game?,311|355|324|339|359|391|380|415|341|409|480|452,2284|574|1228|401|388|349|363|350|650|926|353|381|547|368|383|394|439,401|388|345|405|621|479,"In fact, they all were which made the games stressful to watch.",I am a huge fan of my old high_school football team and attended every game last season.,Some of their losses were close.,Tue Jul 28 2020 10:53:48 GMT+0200 (Ora legale dell’Europa centrale),1.60E+12,67.22.00,key_press_trials[2],37,none,next
1950,No,Press the spacebar to reveal the next words/sentence.,22379,Yes,27,none,filler,correct,Bachelor or Master,1.60E+12,N,167,TRUE,male,Y,N,N,B1,Did the people at the bake sale think my brownies were disgusting?,321|333|315|353|342|487|277|312|823|311|555|470|331|346|509,336|419|468|347|408|440|359|679|334|491|452|472|406|487,288|356|345|376|510|319|403|419|368|362|458,They were so popular that some of the other parents asked me for the recipe.,My daughter asked me to make brownies for the bake sale at her school.,"At the sale, my brownies sold out during the first hour.",Tue Jul 28 2020 10:53:48 GMT+0200 (Ora legale dell’Europa centrale),1.60E+12,67.22.00,key_press_trials[2],38,none,next
1950,No,Press the spacebar to reveal the next words/sentence.,27340,Yes,27,none,cancel_weak,correct,Bachelor or Master,1.60E+12,Y,167,FALSE,male,Y,N,Y,B1,Did it rain earlier today?,303|330|269|346|285|364|361|424|429|360|538,458|344|377|342|380|492|487|354|372|378|369|329|428,390|365|285|329|542|403|419|584|467,"In fact, they all did because they had forgotten their umbrellas.","Earlier today, I passed by a group of tourists looking at sights downtown.",Some of tourists got soaked by the rain storm.,Tue Jul 28 2020 10:53:48 GMT+0200 (Ora legale dell’Europa centrale),1.60E+12,67.22.00,key_press_trials[2],39,none,next
1950,No,Press the spacebar to reveal the next words/sentence.,23471,Yes,27,none,filler,incorrect,Bachelor or Master,1.60E+12,N,167,TRUE,male,Y,N,Y,B1,Do I write my assignments in a notebook?,1110,718|359|384|421|306|332|356|369|288|583,268|551|336|295|371|273|632|288|313|332|450|385|448,,I use Post-It Notes to keep track of my homework.,"Sometimes I lose them, but the adhesive helps them stick to my notes.",Tue Jul 28 2020 10:53:48 GMT+0200 (Ora legale dell’Europa centrale),1.60E+12,67.22.00,key_press_trials[2],40,none,next
1950,No,Press the spacebar to reveal the next words/sentence.,17812,Yes,27,none,literal_weak,correct,Bachelor or Master,1.60E+12,N,167,FALSE,male,Y,N,N,B1,Had all of my favorite rides been removed from Disney World?,223|351|286|273|845|367|304|385|390|490,822|338|315|302|331|298|294|340|343|315|345|465,271|320|273|264|269|356|308|366|440,The rest were shut_down since they were no longer popular.,"When I visited Disney World, I quickly walked around the amusement park.",Only some of my favorite rides were still running.,Tue Jul 28 2020 10:53:48 GMT+0200 (Ora legale dell’Europa centrale),1.60E+12,67.22.00,key_press_trials[2],41,none,next
1950,No,Press the spacebar to reveal the next words/sentence.,16285,Yes,27,none,filler,correct,Bachelor or Master,1.60E+12,Y,167,TRUE,male,Y,N,Y,B1,Was I able to eat any of the tomatoes I planted?,892,356|363|627|527|425|333|428,340|942|350|219|329|333|270|411|317|612|290|457|312|353|346,,I planted tomato plants in my backyard.,"By the time the tomatoes became ripe, wild animals had already eaten most of them.",Tue Jul 28 2020 10:53:48 GMT+0200 (Ora legale dell’Europa centrale),1.60E+12,67.22.00,key_press_trials[2],42,none,next
1950,No,Press the spacebar to reveal the next words/sentence.,22978,Yes,27,none,literal_strong,correct,Bachelor or Master,1.60E+12,Y,167,FALSE,male,Y,N,Y,B1,Did my client have real-estate investments?,336|296|298|345|346|265|273|442|344|290|414,358|368|262|400|304|282|422|389|763|547,536|376|242|277|903|640|396|612,The others were successful in spite of the recent economic downturn.,"At my client's request, I meticulously compiled the investment report.",Only some of the real-estate investments lost money.,Tue Jul 28 2020 10:53:48 GMT+0200 (Ora legale dell’Europa centrale),1.60E+12,67.22.00,key_press_trials[2],43,none,next
1950,No,Press the spacebar to reveal the next words/sentence.,24853,Yes,27,none,filler,correct,Bachelor or Master,1.60E+12,N,167,TRUE,male,Y,N,N,B1,Did eating carrots give me night vision?,301|262|373|324|414|287|363|289|384|484,368|250|388|298|355|302|360|327|311|351|364|610,304|252|302|296|328|327|524|336|268|336|260|455|293|427,"The carrots must have failed, because I couldn't see anything.",I have often heard that carrots help you see in the dark.,I once ate an entire bag of carrots and then turned the light off.,Tue Jul 28 2020 10:53:48 GMT+0200 (Ora legale dell’Europa centrale),1.60E+12,67.22.00,key_press_trials[2],44,none,next
1950,No,Press the spacebar to reveal the next words/sentence.,31152,Yes,27,none,anaphor_strong,correct,Bachelor or Master,1.60E+12,N,167,FALSE,male,Y,N,N,B1,Were the teachers insensitive to the feelings of the students?,197|401|217|327|752|206|335|264|452|348|257|365|314|308|331|330|499,887|357|504|335|352|358|333|387|950|394|548|388|409|550|2399,395|309|319|332|531|299|480,The others were not invited to attend because the teachers didn't want anyone to feel left out.,The PTA picked me to organize every award for the assembly at my daughter's school.,Some of the honors students received prizes.,Tue Jul 28 2020 10:53:48 GMT+0200 (Ora legale dell’Europa centrale),1.60E+12,67.22.00,key_press_trials[2],45,none,next
1950,No,Press the spacebar to reveal the next words/sentence.,20787,Yes,27,none,filler,correct,Bachelor or Master,1.60E+12,Y,167,TRUE,male,Y,N,Y,B1,Was my task a tiring one?,319|270|398|830|413|487|381|370|329|390|322|456,387|423|318|435|542|293|337|275|394|326|479|343|769|465,283|355|295|349|292|380|329|409|346|342|435,"I was glad I didn't have to write the letters, as well.","After my brother's wedding, I helped him address the envelopes to his thank-you notes.","When I finished, my hand was sore from all the writing.",Tue Jul 28 2020 10:53:48 GMT+0200 (Ora legale dell’Europa centrale),1.60E+12,67.22.00,key_press_trials[2],46,none,next
1950,No,Press the spacebar to reveal the next words/sentence.,21061,Yes,27,none,anaphor_weak,correct,Bachelor or Master,1.60E+12,N,167,FALSE,male,Y,N,N,B1,Was I studying for a French language test?,328|343|282|290|335|324|316|304|314|444,339|295|689|445|287|296|332|891|227|534|336|340|342|398|637|384|403|530|401,389|308|314|367|335|447|460,The others were irregular verbs which made the test challenging.,I had little time to prepare for my Spanish test so I quickly glanced at the new vocabulary items.,Some of the words were regular verbs.,Tue Jul 28 2020 10:53:48 GMT+0200 (Ora legale dell’Europa centrale),1.60E+12,67.22.00,key_press_trials[2],47,none,next
1950,No,Press the spacebar to reveal the next words/sentence.,15858,Yes,27,none,filler,correct,Bachelor or Master,1.60E+12,N,167,TRUE,male,Y,N,N,B1,Does the radio play Pink Floyd?,260|356|285|343|295|484|365|367|384|354|340|382|494,310|401|363|456|350|493,288|366|276|335|324|400|278|380|411,"The radio doesn't play music I like, so I listen to my iPod.",I love to listen to music.,I could spend hours just listening to Pink Floyd.,Tue Jul 28 2020 10:53:48 GMT+0200 (Ora legale dell’Europa centrale),1.60E+12,67.22.00,key_press_trials[2],48,none,next
1950,No,Press the spacebar to reveal the next words/sentence.,24552,Yes,27,none,filler,incorrect,Bachelor or Master,1.60E+12,Y,167,TRUE,male,Y,N,N,B1,Did being locked out all night make my cat hungry?,434|337|316|491|328|336|353|412|424|561|388|468|493,324|326|314|357|262|463|412|337|370|386|343|373|394,411|383|296|447|316|522|389|350|371|352|390|319|586,"The minute I opened the door, he ran inside to his food bowl.",I usually let my cat go outside for a couple hours every night.,"Last night, I forgot to let him back in until the next morning.",Tue Jul 28 2020 10:53:48 GMT+0200 (Ora legale dell’Europa centrale),1.60E+12,67.22.00,key_press_trials[2],49,none,next
