submission_id,question,startDate,correctness,experiment_id,group,RT_keyPress,key2,filler,reactionTimes_knowledge,expected,key_pressed,N,reactionTimes_trigger,condition,endTime,sentence_knowledge,age,comments,sentence_continuation,key1,education,QUD,sentence_trigger,reactionTimes_continuation,languages,wordPos,Y,gender,trial_number,startTime,timeSpent,underline,trial_name
2144,Were all of my bottles of wine safe in the basement?,Fri Aug 07 2020 14:29:35 GMT+0200 (Mitteleuropäische Sommerzeit),correct,167,0,24554,N,FALSE,519|530|471|449|474|567|552|600|625|543|544,N,N,No,471|419|422|422|499|655|439|482,cancel_strong,1.59681E+12,"After my house was burglarized, I carefully inventoried my wine collection.",70,,"In fact, they all were even though I had secured them.",Y,Bachelor or Master,Press the spacebar to reveal the next words / sentence.,Some of the bottles of Chardonnay were missing.,431|435|447|429|406|489|433|806|1156|784|449,C1,next,Yes,female,1,1.5968E+12,31.7126,none,key_press_trials[0]
2144,Have I seen the Star Wars TV show?,Fri Aug 07 2020 14:29:35 GMT+0200 (Mitteleuropäische Sommerzeit),incorrect,167,0,24018,N,TRUE,512|563|474|437|492|745|546,N,Y,No,429|468|443|412|436|490|611|683|559,filler,1.59681E+12,I am a big Star Wars fan.,70,,I can't stand it when they make TV shows out of movies.,Y,Bachelor or Master,Press the spacebar to reveal the next words / sentence.,I have seen every movie and read every book.,436|504|450|391|409|392|474|494|666|446|515|878,C1,next,Yes,female,2,1.5968E+12,31.7126,none,key_press_trials[0]
2144,Was there a dog in the veterinary clinic?,Fri Aug 07 2020 14:29:35 GMT+0200 (Mitteleuropäische Sommerzeit),correct,167,0,25214,N,FALSE,412|478|485|448|1033|554|403|571|397|712|386|488|456|667,Y,Y,No,447|454|457|438|452|549|649,anaphor_weak,1.59681E+12,"While working in the veterinary clinic, I caught a glimpse of a large bulldog.",70,,The rest were intact so it should still be able to eat solid food.,Y,Bachelor or Master,Press the spacebar to reveal the next words / sentence.,Some of the dog's teeth were missing.,339|317|557|527|422|422|443|497|406|421|479|558|548|619,C1,next,Yes,female,3,1.5968E+12,31.7126,none,key_press_trials[0]
2144,Do I write my assignments in a notebook?,Fri Aug 07 2020 14:29:35 GMT+0200 (Mitteleuropäische Sommerzeit),correct,167,0,21879,N,TRUE,431|519|503|683|412|551|756|784|530|630,N,N,No,574|404|368|347|554|503|961|701|700|610|477|475|626,filler,1.59681E+12,I use Post-It Notes to keep track of my homework.,70,,,Y,Bachelor or Master,Press the spacebar to reveal the next words / sentence.,"Sometimes I lose them, but the adhesive helps them stick to my notes.",928,C1,next,Yes,female,4,1.5968E+12,31.7126,none,key_press_trials[0]
2144,Did the bowling ball leave any of the steps undamaged?,Fri Aug 07 2020 14:29:35 GMT+0200 (Mitteleuropäische Sommerzeit),correct,167,0,24834,N,FALSE,374|754|465|393|509|621|428|559|787|293|724|669,N,N,No,657|734|675|672|471|890,cancel_weak,1.59681E+12,I heard that my friend dropped a bowling ball down the stairs.,70,,"In fact, they all were so they will require extensive repairs.",Y,Bachelor or Master,Press the spacebar to reveal the next words / sentence.,Some of the steps were damaged.,445|400|416|446|583|403|515|1094|833|776|564,C1,next,Yes,female,5,1.5968E+12,31.7126,none,key_press_trials[0]
2144,Have I acted with Neil Patrick Harris?,Fri Aug 07 2020 14:29:35 GMT+0200 (Mitteleuropäische Sommerzeit),correct,167,0,15621,N,TRUE,607|470|684|485|394|655|509,N,N,No,422|510|646|421|399|491|422,filler,1.59681E+12,Neil Patrick Harris is my favorite actor.,70,,I wish I could meet him.,Y,Bachelor or Master,Press the spacebar to reveal the next words / sentence.,Harris stars in my favorite TV show.,369|386|435|414|646|406,C1,next,Yes,female,6,1.5968E+12,31.7126,none,key_press_trials[0]
2144,Did my high_school football team win every game?,Fri Aug 07 2020 14:29:35 GMT+0200 (Mitteleuropäische Sommerzeit),correct,167,0,29129,N,FALSE,403|529|382|563|386|409|459|522|716|793|432|456|802|550|452|502|402,N,N,No,426|839|456|661|712|804|2811,literal_strong,1.59681E+12,I am a huge fan of my old high_school football team and attended every game last season.,70,,The others were blowouts which made the games boring to watch.,Y,Bachelor or Master,Press the spacebar to reveal the next words / sentence.,Only some of their losses were close.,563|614|543|1396|656|494|578|674|347|769|532,C1,next,Yes,female,7,1.5968E+12,31.7126,none,key_press_trials[0]
2144,Was the Ferrari black?,Fri Aug 07 2020 14:29:35 GMT+0200 (Mitteleuropäische Sommerzeit),correct,167,0,22238,N,TRUE,489|444|747|521|364|587|441|503|548|331|573|692|544|501,N,N,No,345|526|644|701|995|1143|562|1277,filler,1.59681E+12,When I arrived in the parking lot today I saw an expensive red Ferrari.,70,,,Y,Bachelor or Master,Press the spacebar to reveal the next words / sentence.,When I left for lunch it was gone.,671,C1,next,Yes,female,8,1.5968E+12,31.7126,none,key_press_trials[0]
2144,Was I studying for a French language test?,Fri Aug 07 2020 14:29:35 GMT+0200 (Mitteleuropäische Sommerzeit),correct,167,0,21636,N,FALSE,461|560|452|395|298|354|533|417|457|693|289|337|631|615,N,N,No,437|401|340|412|417|567|864,anaphor_strong,1.59681E+12,"To prepare for my Spanish test, I spent hours studying the new vocabulary items.",70,,The others were irregular verbs which made the test challenging.,Y,Bachelor or Master,Press the spacebar to reveal the next words / sentence.,Some of the words were regular verbs.,451|297|448|567|335|298|660|532|537|784,C1,next,Yes,female,9,1.5968E+12,31.7126,none,key_press_trials[0]
2144,Did being locked out all night make my cat hungry?,Fri Aug 07 2020 14:29:35 GMT+0200 (Mitteleuropäische Sommerzeit),correct,167,0,24202,N,TRUE,435|575|347|462|359|361|289|377|462|328|247|341|383,Y,Y,No,246|420|374|382|339|321|284|465|395|627|396|570|663,filler,1.59681E+12,I usually let my cat go outside for a couple hours every night.,70,,"The minute I opened the door, he ran inside to his food bowl.",Y,Bachelor or Master,Press the spacebar to reveal the next words / sentence.,"Last night, I forgot to let him back in until the next morning.",344|343|506|628|445|449|405|461|378|527|397|615|324,C1,next,Yes,female,10,1.5968E+12,31.7126,none,key_press_trials[0]
2144,Was the babysitter smoking pot instead of looking after my children?,Fri Aug 07 2020 14:29:35 GMT+0200 (Mitteleuropäische Sommerzeit),correct,167,0,29867,N,FALSE,426|459|1596|448|487|402|397|384|518|773|537|527|501|512,N,N,No,428|456|399|388|386|332|555|768|680|636|851,literal_weak,1.59681E+12,"After the babysitter left, I went to my liquor collection and made a drink.",70,,"The others were untouched, but I was still concerned and decided to call her parents.",Y,Bachelor or Master,Press the spacebar to reveal the next words / sentence.,Only some of my new bottles of peach schnapps were opened.,357|368|326|375|482|368|285|452|595|302|378|387|485|502|856,C1,next,Yes,female,11,1.5968E+12,31.7126,none,key_press_trials[0]
2144,Was I able to eat any of the tomatoes I planted?,Fri Aug 07 2020 14:29:35 GMT+0200 (Mitteleuropäische Sommerzeit),correct,167,0,20207,N,TRUE,413|428|712|424|472|450|464,Y,Y,No,319|357|379|452|398|450|514|420|482|422|612|486|414|479|457,filler,1.59681E+12,I planted tomato plants in my backyard.,70,,,Y,Bachelor or Master,Press the spacebar to reveal the next words / sentence.,"By the time the tomatoes became ripe, wild animals had already eaten most of them.",752,C1,next,Yes,female,12,1.5968E+12,31.7126,none,key_press_trials[0]
2144,Did my parents save money by entirely avoiding expensive hotels?,Fri Aug 07 2020 14:29:35 GMT+0200 (Mitteleuropäische Sommerzeit),correct,167,0,25023,N,FALSE,474|458|476|451|337|693|528|426|959|700|493|614|401|480|697,N,N,No,448|363|625|524|491|624,cancel_strong,1.59681E+12,"When they returned, I reviewed each of the receipts for my family's trip to Europe.",70,,"In fact, they all were because my family loves luxurious holidays.",Y,Bachelor or Master,Press the spacebar to reveal the next words / sentence.,Some of their hotels were expensive.,354|390|341|326|498|599|536|445|506|595|448,C1,next,Yes,female,13,1.5968E+12,31.7126,none,key_press_trials[0]
2144,Did the mouse find a way into the plastic container?,Fri Aug 07 2020 14:29:35 GMT+0200 (Mitteleuropäische Sommerzeit),correct,167,0,23002,N,TRUE,364|491|513|471|723|576|495|429|924,Y,Y,No,741|720|590|384|464|429|825|283|812|464|707|386|451|504|685|695|765,filler,1.59681E+12,I have seen a mouse living in my apartment.,70,,,Y,Bachelor or Master,Press the spacebar to reveal the next words / sentence.,"Yesterday, it ate a bar of chocolate, even though the candy was in a closed plastic container.",985,C1,next,Yes,female,14,1.5968E+12,31.7126,none,key_press_trials[0]
2144,Was it dangerous for the residents to stay in town?,Fri Aug 07 2020 14:29:35 GMT+0200 (Mitteleuropäische Sommerzeit),correct,167,0,21104,N,FALSE,490|500|716|853|461|727|305|371|523|497|492,Y,Y,No,555|457|461|701|378|686,anaphor_weak,1.59681E+12,"Before the hurricane landed, I volunteered to help out in town.",70,,The rest stayed at home and foolishly risked their lives.,Y,Bachelor or Master,Press the spacebar to reveal the next words / sentence.,Some of the residents had evacuated.,406|338|496|443|419|329|323|639|543|517,C1,next,Yes,female,15,1.5968E+12,31.7126,none,key_press_trials[0]
2144,"While the song was on, was I paying attention to my surroundings?",Fri Aug 07 2020 14:29:35 GMT+0200 (Mitteleuropäische Sommerzeit),correct,167,0,29570,N,TRUE,489|416|506|559|583|826|359|283|627|573|508|482|504,N,N,No,489|623|505|409|526|528|726,filler,1.59681E+12,"When I was driving to work, my favorite song came on the radio.",70,,"Afterwards, I realized that my windows had been open and other drivers had been staring at me.",Y,Bachelor or Master,Press the spacebar to reveal the next words / sentence.,I started to sing along really loudly.,447|512|619|543|578|704|579|392|486|470|538|555|590|1035|579|505|444,C1,next,Yes,female,16,1.5968E+12,31.7126,none,key_press_trials[0]
2144,Were any of my predictions confirmed by my research?,Fri Aug 07 2020 14:29:35 GMT+0200 (Mitteleuropäische Sommerzeit),correct,167,0,29042,N,FALSE,437|520|399|420|656|388|297|718|318|547|653|471|599|921|555|794,Y,Y,No,409|442|381|823|576|392,cancel_weak,1.59681E+12,"To check on the progress of my research, I quickly scanned the experiments in the lab.",70,,"In fact, they all were so I should be able to publish the results.",Y,Bachelor or Master,Press the spacebar to reveal the next words / sentence.,Some of my predictions were correct.,369|379|391|446|437|416|447|512|391|496|465|734|463|508,C1,next,Yes,female,17,1.5968E+12,31.7126,none,key_press_trials[0]
2144,Is the play a musical?,Fri Aug 07 2020 14:29:35 GMT+0200 (Mitteleuropäische Sommerzeit),correct,167,0,20859,N,TRUE,491|440|638|408|572|400|426,Y,Y,No,459|676|751|1219|1823|505|467,filler,1.59681E+12,Over the weekend I saw a play.,70,,If the actors could sing it would sound nicer.,Y,Bachelor or Master,Press the spacebar to reveal the next words / sentence.,The student theatre group put it on.,344|507|714|665|545|521|655|562|592,C1,next,Yes,female,18,1.5968E+12,31.7126,none,key_press_trials[0]
2144,Were all of the gold watches genuine?,Fri Aug 07 2020 14:29:35 GMT+0200 (Mitteleuropäische Sommerzeit),correct,167,0,31596,N,FALSE,499|506|476|495|618|566|641|1501|784|677|530|780|494|499|1535|511|1232,N,N,No,542|465|518|471|566|1185|580|903,literal_strong,1.59681E+12,"To make sure the company didn't receive fraudulent merchandise, I carefully inspected the new shipment of jewelry.",70,,"The rest were real, but the company is still planning to sue.",Y,Bachelor or Master,Press the spacebar to reveal the next words / sentence.,Only some of the gold watches were fakes.,382|480|372|460|392|444|578|427|533|770|465|845,C1,next,Yes,female,19,1.5968E+12,31.7126,none,key_press_trials[0]
2144,Did my trouble with the windmill cause me to lose the game?,Fri Aug 07 2020 14:29:35 GMT+0200 (Mitteleuropäische Sommerzeit),correct,167,0,30714,N,TRUE,501|597|593|611|459|373|424|587|729,N,N,No,417|670|589|469|574|506|727|888|520|673,filler,1.59681E+12,On Saturday my friends and I played miniature golf.,70,,"At one hole, my ball got stuck on a windmill, but at the next, I got a hole in one.",Y,Bachelor or Master,Press the spacebar to reveal the next words / sentence.,"I played pretty well, but my scores fluctuated a lot.",423|440|621|560|503|772|1022|698|586|993|470|546|537|535|407|399|554|681|489|436,C1,next,Yes,female,20,1.5968E+12,31.7126,none,key_press_trials[0]
2144,Did my client have real-estate investments?,Fri Aug 07 2020 14:29:35 GMT+0200 (Mitteleuropäische Sommerzeit),correct,167,0,24886,N,FALSE,555|396|692|457|389|1221|821|457|642|415,Y,Y,No,472|324|351|796|581|413|645,anaphor_strong,1.59681E+12,"At my client's request, I meticulously compiled the investment report.",70,,The others were successful in spite of the recent economic downturn.,Y,Bachelor or Master,Press the spacebar to reveal the next words / sentence.,Some of the real-estate investments lost money.,358|540|384|304|743|688|468|467|603|969|612,C1,next,Yes,female,21,1.5968E+12,31.7126,none,key_press_trials[0]
2144,Was my bookshelf sturdy?,Fri Aug 07 2020 14:29:35 GMT+0200 (Mitteleuropäische Sommerzeit),correct,167,0,24180,N,TRUE,418|551|430|496|696|464|486|750,N,N,No,332|439|479|653|420|390|424|403|734|948|1439|568|576|1156|739,filler,1.59681E+12,I built a new bookshelf for my bedroom.,70,,"The next day, it fell apart again.",Y,Bachelor or Master,Press the spacebar to reveal the next words / sentence.,"It was very difficult to do, because I lost the instructions for putting it together.",398|302|473|396|331|548|620,C1,next,Yes,female,22,1.5968E+12,31.7126,none,key_press_trials[0]
2144,Are there liquid nitrogen containers in the laboratory?,Fri Aug 07 2020 14:29:35 GMT+0200 (Mitteleuropäische Sommerzeit),correct,167,0,31481,N,FALSE,447|498|461|2425|587|635|358|749|536|458|713|703|538|597|614,Y,Y,No,515|293|498|384|336|657|933|655|725|510|490|630,literal_weak,1.59681E+12,"To keep the laboratory well stocked, I occasionally look at which chemicals are being used.",70,,The others were normal but I decided to order more anyway.,Y,Bachelor or Master,Press the spacebar to reveal the next words / sentence.,"Today, only some of the liquid nitrogen containers needed to be refilled.",435|349|568|423|333|463|414|375|496|560|621,C1,next,Yes,female,23,1.5968E+12,31.7126,none,key_press_trials[0]
2144,Am I well yet?,Fri Aug 07 2020 14:29:35 GMT+0200 (Mitteleuropäische Sommerzeit),correct,167,0,15077,N,TRUE,409|536|475|453|464|463|517|334|543,N,N,No,437|381|560|1527|1114,filler,1.59681E+12,I got sick with a cold over the weekend.,70,,,Y,Bachelor or Master,Press the spacebar to reveal the next words / sentence.,I am still taking decongestants.,1093,C1,next,Yes,female,24,1.5968E+12,31.7126,none,key_press_trials[0]
2144,Had the store sold out all of its leather couches before the furniture sale?,Fri Aug 07 2020 14:29:35 GMT+0200 (Mitteleuropäische Sommerzeit),incorrect,167,0,28135,N,FALSE,620|441|674|995|428|760|540|551|342|582|525|574,N,Y,No,488|404|383|702|787|362|554|441,cancel_strong,1.59681E+12,"After the furniture sale, I catalogued all the merchandise in the store.",70,,"In fact, they all had since they were stylish and cheap.",Y,Bachelor or Master,Press the spacebar to reveal the next words / sentence.,Some of the leather couches had been sold.,428|379|384|394|397|408|636|456|698|451|496,C1,next,Yes,female,25,1.5968E+12,31.7126,none,key_press_trials[0]
2144,Did I get into an accident on the highway?,Fri Aug 07 2020 14:29:35 GMT+0200 (Mitteleuropäische Sommerzeit),correct,167,0,33372,N,TRUE,483|387|452|760|478|337|743|473|339|577|630|481|426|372|527|450|588|867|636,N,N,No,690|495|415|412|390|520|337|542|466|475|495|504|761,filler,1.59681E+12,"When I was driving on the highway, a car nearly crashed into me because it was going too fast.",70,,It looked to me like a police officer was giving the driver a ticket.,Y,Bachelor or Master,Press the spacebar to reveal the next words / sentence.,"Later on, I noticed the same car on the side of the road.",939|720|955|750|672|478|613|757|555|628|387|540|402|473,C1,next,Yes,female,26,1.5968E+12,31.7126,none,key_press_trials[0]
2144,Was the bus empty during the accident?,Fri Aug 07 2020 14:29:35 GMT+0200 (Mitteleuropäische Sommerzeit),correct,167,0,28897,N,FALSE,363|499|458|501|748|470|545|462|372|589|530|588|439|438|433|468|560|771,N,N,No,570|459|553|1242|485|445|506,anaphor_weak,1.59681E+12,I stopped to see if I could help with the bus accident on the side of the highway.,70,,The others were killed on impact and there was no opportunity to save them.,Y,Bachelor or Master,Press the spacebar to reveal the next words / sentence.,Some of the passengers were still alive.,355|460|385|459|449|339|564|408|619|496|1025|498|483|570,C1,next,Yes,female,27,1.5968E+12,31.7126,none,key_press_trials[0]
2144,Did the people at the bake sale think my brownies were disgusting?,Fri Aug 07 2020 14:29:35 GMT+0200 (Mitteleuropäische Sommerzeit),correct,167,0,30565,N,TRUE,523|361|632|450|475|426|1096|426|336|552|518|614|486|505,N,N,No,428|557|514|449|586|634|481|766|800|618|728,filler,1.59681E+12,My daughter asked me to make brownies for the bake sale at her school.,70,,They were so popular that some of the other parents asked me for the recipe.,Y,Bachelor or Master,Press the spacebar to reveal the next words / sentence.,"At the sale, my brownies sold out during the first hour.",331|467|426|568|513|497|454|428|475|716|600|407|369|439|615,C1,next,Yes,female,28,1.5968E+12,31.7126,none,key_press_trials[0]
2144,Did anyone in my family cook spicy food last week?,Fri Aug 07 2020 14:29:35 GMT+0200 (Mitteleuropäische Sommerzeit),incorrect,167,0,25922,N,FALSE,437|418|455|327|518|508|1094,Y,N,No,457|461|418|494|486|624,cancel_weak,1.59681E+12,"Last week, I attended a family potluck.",70,,"In fact, they all were but fortunately I love spicy food.",Y,Bachelor or Master,Press the spacebar to reveal the next words / sentence.,Some of the dishes were spicy.,335|433|350|376|360|365|477|372|544|431|417,C1,next,Yes,female,29,1.5968E+12,31.7126,none,key_press_trials[0]
2144,Was I lucky to have noticed the object in the water?,Fri Aug 07 2020 14:29:35 GMT+0200 (Mitteleuropäische Sommerzeit),correct,167,0,34672,N,TRUE,354|912|756|736|559|444|566|326|529|440|533|561|379|557|678,Y,Y,No,457|410|560|646|442|617|382|373|447|1087|479,filler,1.59681E+12,I was swimming laps in my local pool when I noticed something at the bottom.,70,,"Nobody claimed it when I asked the people nearby, so I kept it.",Y,Bachelor or Master,Press the spacebar to reveal the next words / sentence.,"When I dove down, I realized it was a twenty-dollar bill.",465|1103|551|743|382|483|437|557|732|362|461|489|421,C1,next,Yes,female,30,1.5968E+12,31.7126,none,key_press_trials[0]
2144,Did the manager have a meeting with any of the accountants?,Fri Aug 07 2020 14:29:35 GMT+0200 (Mitteleuropäische Sommerzeit),correct,167,0,30380,N,FALSE,598|437|386|349|803|393|366|642|587|613|361|586,Y,Y,No,393|407|420|408|614|623|446|522,literal_strong,1.59681E+12,"This morning, I took attendance at an important meeting with the manager.",70,,The rest were missing because they had to audit the company's finances before the end of the quarter.,Y,Bachelor or Master,Press the spacebar to reveal the next words / sentence.,Only some of the company's accountants were there.,355|409|424|764|359|465|427|407|812|398|624|374|928|601|546|606|559|711,C1,next,Yes,female,31,1.5968E+12,31.7126,none,key_press_trials[0]
2144,Did I still read a book?,Fri Aug 07 2020 14:29:35 GMT+0200 (Mitteleuropäische Sommerzeit),incorrect,167,0,18066,N,TRUE,459|430|430|305|556|511|600|445|551|415|696,Y,N,No,496|362|414|372|566|336|395|518|319|498,filler,1.59681E+12,"After dinner, I listen to Celtic music and read a book.",70,,,Y,Bachelor or Master,Press the spacebar to reveal the next words / sentence.,Today I listened to classic rock instead of Celtic music.,451,C1,next,Yes,female,32,1.5968E+12,31.7126,none,key_press_trials[0]
2144,Did it rain earlier today?,Fri Aug 07 2020 14:29:35 GMT+0200 (Mitteleuropäische Sommerzeit),correct,167,0,25471,N,FALSE,942|618|430|308|503|534|570|602|406|343|697|438|416|694,Y,Y,No,524|463|582|715|937|482|487|592|570,anaphor_strong,1.59681E+12,"Earlier today, I was leading a small group of tourists around the sights downtown.",70,,The rest were dry because they had remembered their umbrellas.,Y,Bachelor or Master,Press the spacebar to reveal the next words / sentence.,Some of tourists got soaked by the rain storm.,406|412|372|416|500|363|358|768|510|724,C1,next,Yes,female,33,1.5968E+12,31.7126,none,key_press_trials[0]
2144,Do my parents always obey the law?,Fri Aug 07 2020 14:29:35 GMT+0200 (Mitteleuropäische Sommerzeit),correct,167,0,29102,N,TRUE,442|735|623|968|441|623|472|300|441|408|532|310|559|440|468|564|549|472,N,N,No,544|457|684|385|547|784|520|510,filler,1.59681E+12,"When I talked to my parents yesterday, they told me that they did not pay taxes this year.",70,,"I am worried about their decision, since they might go to prison.",Y,Bachelor or Master,Press the spacebar to reveal the next words / sentence.,They have decided that all taxation is theft.,319|481|648|522|572|701|612|445|771|602|521|653,C1,next,Yes,female,34,1.5968E+12,31.7126,none,key_press_trials[0]
2144,Had all of my favorite rides been removed from Disney World?,Fri Aug 07 2020 14:29:35 GMT+0200 (Mitteleuropäische Sommerzeit),correct,167,0,27871,N,FALSE,616|426|436|622|507|456|392|581|510|413|606|498,N,N,No,427|404|479|316|536|673|562|418|726,literal_weak,1.59681E+12,"When I visited Disney World, I quickly walked around the amusement park.",70,,The rest were shut_down since they were no longer popular.,Y,Bachelor or Master,Press the spacebar to reveal the next words / sentence.,Only some of my favorite rides were still running.,358|537|579|1608|715|478|493|511|573|615,C1,next,Yes,female,35,1.5968E+12,31.7126,none,key_press_trials[0]
2144,Did my family remember my birthday this year?,Fri Aug 07 2020 14:29:35 GMT+0200 (Mitteleuropäische Sommerzeit),correct,167,0,28870,N,TRUE,444|444|380|480|456|663|486|457|805|695|659,Y,Y,No,474|668|406|335|513|1049|1291|623|595|502|600|543,filler,1.59681E+12,"For my birthday, my family bought me an ice cream cake.",70,,The cake also had my name on the top in blue and green icing.,Y,Bachelor or Master,Press the spacebar to reveal the next words / sentence.,"The inside of it was mint-chocolate chip, my favorite ice cream flavor.",399|376|447|406|554|418|437|552|469|570|429|616|606|322,C1,next,Yes,female,36,1.5968E+12,31.7126,none,key_press_trials[0]
2144,Were the teachers insensitive to the feelings of the students?,Fri Aug 07 2020 14:29:35 GMT+0200 (Mitteleuropäische Sommerzeit),correct,167,0,32067,N,FALSE,519|397|601|393|469|606|697|912|464|344|744|455|416|826|852,N,N,No,430|434|356|413|635|661|986,cancel_strong,1.59681E+12,The PTA picked me to organize every award for the assembly at my daughter's school.,70,,"In fact, they all did because the teachers didn't want any of them to feel left out.",Y,Bachelor or Master,Press the spacebar to reveal the next words / sentence.,Some of the honors students received prizes.,292|493|468|404|440|1737|855|994|784|481|319|758|591|440|401|370|658,C1,next,Yes,female,37,1.5968E+12,31.7126,none,key_press_trials[0]
2144,Do I like cherry gumdrops?,Fri Aug 07 2020 14:29:35 GMT+0200 (Mitteleuropäische Sommerzeit),correct,167,0,17893,N,TRUE,419|972|491|1519|739,N,N,No,286|498|725|384|402|700|531|279|632|680,filler,1.59681E+12,I can't stand fruit-flavored candy.,70,,,Y,Bachelor or Master,Press the spacebar to reveal the next words / sentence.,"I make exceptions for lemon lollipops and chewy candy, though.",577,C1,next,Yes,female,38,1.5968E+12,31.7126,none,key_press_trials[0]
2144,Did the library's reference section contain dictionaries?,Fri Aug 07 2020 14:29:35 GMT+0200 (Mitteleuropäische Sommerzeit),correct,167,0,29732,N,FALSE,530|691|485|404|471|405|434|441|422|515|1045|542|943|655,Y,Y,No,568|408|386|711|430|742|710,anaphor_weak,1.59681E+12,The librarian told me about how annoying it was to reorganize the reference section.,70,,The others were labeled appropriately though a few of them had been shelved in the wrong place.,Y,Bachelor or Master,Press the spacebar to reveal the next words / sentence.,Some of the dictionaries were labeled incorrectly.,893|313|702|815|1291|439|586|539|404|387|526|663|643|513|384|642|709,C1,next,Yes,female,39,1.5968E+12,31.7126,none,key_press_trials[0]
2144,Did I see a doctor after I started feeling ill?,Fri Aug 07 2020 14:29:35 GMT+0200 (Mitteleuropäische Sommerzeit),correct,167,0,29096,N,TRUE,479|377|615|436|610|595|566|417|453|547|476|307|625|531|779,Y,Y,No,533|511|443|666|460|540|549|640|512|689|569,filler,1.59681E+12,"After I got back from my trip to the equator, I started feeling very ill.",70,,"Luckily, there are drugs which effectively treat it, and I am now healthy.",Y,Bachelor or Master,Press the spacebar to reveal the next words / sentence.,My doctor told me I had contracted a rare tropical disease.,371|575|539|500|487|818|642|729|533|473|427|516|555,C1,next,Yes,female,40,1.5968E+12,31.7126,none,key_press_trials[0]
2144,Were my office's computers safe from damaging software?,Fri Aug 07 2020 14:29:35 GMT+0200 (Mitteleuropäische Sommerzeit),correct,167,0,28729,N,FALSE,491|489|714|685|1177|466|464|519|608|508|444|628|493|728,N,N,No,372|391|572|594|689|586,cancel_weak,1.59681E+12,"As the office's main technician, I had been alerted to the dangerous new virus.",70,,"In fact, they all were and the virus nearly destroyed the whole system.",Y,Bachelor or Master,Press the spacebar to reveal the next words / sentence.,Some of our computers were infected.,357|404|367|383|389|417|399|687|416|620|526|501|450,C1,next,Yes,female,41,1.5968E+12,31.7126,none,key_press_trials[0]
2144,Did my mother write to me?,Fri Aug 07 2020 14:29:35 GMT+0200 (Mitteleuropäische Sommerzeit),correct,167,0,18194,N,TRUE,382|844|417|482|611|562|709|452|406|491,N,N,No,444|752|479|469|486|566|553|451|553,filler,1.59681E+12,I turned on my computer today to check my email.,70,,I had no new email.,Y,Bachelor or Master,Press the spacebar to reveal the next words / sentence.,I have been waiting to hear from my mother.,437|420|480|636|526,C1,next,Yes,female,42,1.5968E+12,31.7126,none,key_press_trials[0]
2144,Was there a school bus sitting in the parking lot?,Fri Aug 07 2020 14:29:35 GMT+0200 (Mitteleuropäische Sommerzeit),correct,167,0,26981,N,FALSE,427|504|544|618|603|474|769|627|413|482|683,Y,Y,No,578|484|760|662|916|484|755,literal_strong,1.59681E+12,"In the school parking lot, I carefully inspected an old bus.",70,,The others were fine so it would not cost too much to fix it.,Y,Bachelor or Master,Press the spacebar to reveal the next words / sentence.,Only some of its tires were flat.,453|463|448|438|544|446|499|683|593|733|717|310|718|469,C1,next,Yes,female,43,1.5968E+12,31.7126,none,key_press_trials[0]
2144,Did the weather prevent me from having a picnic?,Fri Aug 07 2020 14:29:35 GMT+0200 (Mitteleuropäische Sommerzeit),correct,167,0,25343,N,TRUE,442|761|438|583|391|564|798|441|527,N,N,No,498|323|508|572|543|320|464|570|427|535|473|544|739|365,filler,1.59681E+12,I planned to have a picnic in the park.,70,,"However, the day turned out sunny after all.",Y,Bachelor or Master,Press the spacebar to reveal the next words / sentence.,"The weather forecast predicted rain, so I thought I would have to cancel it.",514|369|464|488|450|683|423|524,C1,next,Yes,female,44,1.5968E+12,31.7126,none,key_press_trials[0]
2144,Did the math textbook have problems for readers to solve?,Fri Aug 07 2020 14:29:35 GMT+0200 (Mitteleuropäische Sommerzeit),incorrect,167,0,26437,N,FALSE,847|410|625|516|532|499|437|521|432|466|435|668,Y,N,No,497|365|427|491|381|704,anaphor_strong,1.59681E+12,"At a friend's suggestion, I completely worked through an entire math textbook.",70,,The others were straightforward and I feel like I learned a lot.,Y,Bachelor or Master,Press the spacebar to reveal the next words / sentence.,Some of its problems were difficult.,406|355|477|347|537|618|342|429|420|622|364|481,C1,next,Yes,female,45,1.5968E+12,31.7126,none,key_press_trials[0]
2144,Did the writer ask me before inserting the slur into his article?,Fri Aug 07 2020 14:29:35 GMT+0200 (Mitteleuropäische Sommerzeit),correct,167,0,35848,N,TRUE,418|415|512|496|458|1531|572|2243|406|537|421|731|478|646|295|490|589|350|520|535|211,N,N,No,451|480|325|692|501|461|723|526|451|370|591|317|585,filler,1.59681E+12,"As the editor of the newspaper, I have to make sure that the paper does not publish anything that is offensive.",70,,I issued a long apology on the front page of the paper the next day.,Y,Bachelor or Master,Press the spacebar to reveal the next words / sentence.,"Unfortunately, a disgruntled writer slipped a racial slur into an article last week.",401|616|414|561|585|431|434|629|511|484|354|578|490|571|457,C1,next,Yes,female,46,1.5968E+12,31.7126,none,key_press_trials[0]
2144,Has my portfolio lost value this year?,Fri Aug 07 2020 14:29:35 GMT+0200 (Mitteleuropäische Sommerzeit),correct,167,0,24628,N,FALSE,545|589|870|415|349|368|474|337|393|477|381|613|685|602,Y,Y,No,512|507|507|502|458|462|460,literal_weak,1.59681E+12,"While eating breakfast, I had little time to skim the stock prices from yesterday.",70,,The others were relatively steady but my portfolio was still down for the year.,Y,Bachelor or Master,Press the spacebar to reveal the next words / sentence.,Only some of my stocks went up.,398|532|380|365|307|615|495|721|444|525|487|577|405|499,C1,next,Yes,female,47,1.5968E+12,31.7126,none,key_press_trials[0]
2144,Is tonight Sunday?,Fri Aug 07 2020 14:29:35 GMT+0200 (Mitteleuropäische Sommerzeit),incorrect,167,0,28771,N,TRUE,422|575|357|458|348|515|604|643|683|487|357|452|399|388|417|567|563,Y,N,No,394|402|532|516|399|453|290|481|649,filler,1.59681E+12,"I love to play card games with my friends, and we are going to play Hearts tonight.",70,,"After a long day of study and rest, cards are the perfect way to relax.",Y,Bachelor or Master,Press the spacebar to reveal the next words / sentence.,We always enjoy playing a game on Sunday evening.,368|466|324|365|453|315|451|492|667|455|396|591|244|542|1119,C1,next,Yes,female,48,1.5968E+12,31.7126,none,key_press_trials[0]
2142,Were all of my bottles of wine safe in the basement?,Thu Aug 06 2020 21:41:21 GMT+0200 (Mitteleuropäische Sommerzeit),incorrect,167,0,32123,N,FALSE,473|464|473|428|1428|678|595|954|620|575|1619,N,Y,No,559|456|564|569|570|909|625|718,cancel_strong,1.59675E+12,"After my house was burglarized, I carefully inventoried my wine collection.",22,,"In fact, they all were even though I had secured them.",Y,Bachelor or Master,Press the spacebar to reveal the next words / sentence.,Some of the bottles of Chardonnay were missing.,479|521|488|469|509|501|544|1189|504|1170|1648,B2,next,Yes,female,1,1.59674E+12,41.00033333,none,key_press_trials[0]
2142,Have I seen the Star Wars TV show?,Thu Aug 06 2020 21:41:21 GMT+0200 (Mitteleuropäische Sommerzeit),incorrect,167,0,27224,N,TRUE,467|447|420|460|463|534|930,N,Y,No,603|458|522|474|504|500|489|526|1000,filler,1.59675E+12,I am a big Star Wars fan.,22,,I can't stand it when they make TV shows out of movies.,Y,Bachelor or Master,Press the spacebar to reveal the next words / sentence.,I have seen every movie and read every book.,483|515|465|425|504|544|486|533|551|563|575|3383,B2,next,Yes,female,2,1.59674E+12,41.00033333,none,key_press_trials[0]
2142,Was there a dog in the veterinary clinic?,Thu Aug 06 2020 21:41:21 GMT+0200 (Mitteleuropäische Sommerzeit),correct,167,0,35951,N,FALSE,800|725|699|579|1320|833|803|626|610|698|745|688|647|2111,Y,Y,No,594|499|490|544|589|800|2430,anaphor_weak,1.59675E+12,"While working in the veterinary clinic, I caught a glimpse of a large bulldog.",22,,The rest were intact so it should still be able to eat solid food.,Y,Bachelor or Master,Press the spacebar to reveal the next words / sentence.,Some of the dog's teeth were missing.,550|519|530|835|493|560|584|549|514|590|474|671|588|726,B2,next,Yes,female,3,1.59674E+12,41.00033333,none,key_press_trials[0]
2142,Do I write my assignments in a notebook?,Thu Aug 06 2020 21:41:21 GMT+0200 (Mitteleuropäische Sommerzeit),correct,167,0,32848,N,TRUE,434|631|1683|1578|680|608|550|605|610|3945,N,N,No,581|693|720|552|526|589|1010|913|679|686|583|655|1647,filler,1.59675E+12,I use Post-It Notes to keep track of my homework.,22,,,Y,Bachelor or Master,Press the spacebar to reveal the next words / sentence.,"Sometimes I lose them, but the adhesive helps them stick to my notes.",1409,B2,next,Yes,female,4,1.59674E+12,41.00033333,none,key_press_trials[0]
2142,Did the bowling ball leave any of the steps undamaged?,Thu Aug 06 2020 21:41:21 GMT+0200 (Mitteleuropäische Sommerzeit),correct,167,0,29794,N,FALSE,614|669|511|490|547|665|731|698|843|576|634|1248,N,N,No,858|479|685|654|695|874,cancel_weak,1.59675E+12,I heard that my friend dropped a bowling ball down the stairs.,22,,"In fact, they all were so they will require extensive repairs.",Y,Bachelor or Master,Press the spacebar to reveal the next words / sentence.,Some of the steps were damaged.,704|858|804|499|611|509|1160|574|790|709|758,B2,next,Yes,female,5,1.59674E+12,41.00033333,none,key_press_trials[0]
2142,Have I acted with Neil Patrick Harris?,Thu Aug 06 2020 21:41:21 GMT+0200 (Mitteleuropäische Sommerzeit),correct,167,0,21608,N,TRUE,510|698|726|679|543|530|615,N,N,No,589|814|664|535|630|610|673,filler,1.59675E+12,Neil Patrick Harris is my favorite actor.,22,,I wish I could meet him.,Y,Bachelor or Master,Press the spacebar to reveal the next words / sentence.,Harris stars in my favorite TV show.,534|595|540|619|603|1529,B2,next,Yes,female,6,1.59674E+12,41.00033333,none,key_press_trials[0]
2142,Did my high_school football team win every game?,Thu Aug 06 2020 21:41:21 GMT+0200 (Mitteleuropäische Sommerzeit),correct,167,0,37926,N,FALSE,559|479|550|509|554|511|499|519|644|589|681|753|706|588|620|653|1100,N,N,No,613|674|810|444|660|638|2728,literal_strong,1.59675E+12,I am a huge fan of my old high_school football team and attended every game last season.,22,,The others were blowouts which made the games boring to watch.,Y,Bachelor or Master,Press the spacebar to reveal the next words / sentence.,Only some of their losses were close.,709|904|585|909|587|633|560|589|629|635|840,B2,next,Yes,female,7,1.59674E+12,41.00033333,none,key_press_trials[0]
2142,Was the Ferrari black?,Thu Aug 06 2020 21:41:21 GMT+0200 (Mitteleuropäische Sommerzeit),correct,167,0,19119,N,TRUE,649|471|448|399|416|504|509|499|490|505|476|549|489|545,N,N,No,518|416|709|535|509|554|537|696,filler,1.59675E+12,When I arrived in the parking lot today I saw an expensive red Ferrari.,22,,,Y,Bachelor or Master,Press the spacebar to reveal the next words / sentence.,When I left for lunch it was gone.,735,B2,next,Yes,female,8,1.59674E+12,41.00033333,none,key_press_trials[0]
2142,Was I studying for a French language test?,Thu Aug 06 2020 21:41:21 GMT+0200 (Mitteleuropäische Sommerzeit),correct,167,0,25668,N,FALSE,690|683|412|522|571|575|467|550|575|569|501|542|611|818,N,N,No,649|485|434|594|574|677|1038,anaphor_strong,1.59675E+12,"To prepare for my Spanish test, I spent hours studying the new vocabulary items.",22,,The others were irregular verbs which made the test challenging.,Y,Bachelor or Master,Press the spacebar to reveal the next words / sentence.,Some of the words were regular verbs.,664|665|614|754|615|669|506|607|615|859,B2,next,Yes,female,9,1.59674E+12,41.00033333,none,key_press_trials[0]
2142,Did being locked out all night make my cat hungry?,Thu Aug 06 2020 21:41:21 GMT+0200 (Mitteleuropäische Sommerzeit),correct,167,0,33998,N,TRUE,704|609|688|575|584|556|618|480|646|553|531|567|1184,Y,Y,No,569|644|580|553|717|768|538|756|604|731|677|585|1006,filler,1.59675E+12,I usually let my cat go outside for a couple hours every night.,22,,"The minute I opened the door, he ran inside to his food bowl.",Y,Bachelor or Master,Press the spacebar to reveal the next words / sentence.,"Last night, I forgot to let him back in until the next morning.",573|532|559|528|575|473|517|559|540|589|605|604|624,B2,next,Yes,female,10,1.59674E+12,41.00033333,none,key_press_trials[0]
2142,Was the babysitter smoking pot instead of looking after my children?,Thu Aug 06 2020 21:41:21 GMT+0200 (Mitteleuropäische Sommerzeit),correct,167,0,47899,N,FALSE,585|554|609|735|428|645|546|539|789|810|703|486|549|534,N,N,No,594|489|495|519|525|524|505|820|1148|710|2832,literal_weak,1.59675E+12,"After the babysitter left, I went to my liquor collection and made a drink.",22,,"The others were untouched, but I was still concerned and decided to call her parents.",Y,Bachelor or Master,Press the spacebar to reveal the next words / sentence.,Only some of my new bottles of peach schnapps were opened.,500|493|589|750|549|520|491|549|660|592|575|505|559|502|1642,B2,next,Yes,female,11,1.59674E+12,41.00033333,none,key_press_trials[0]
2142,Was I able to eat any of the tomatoes I planted?,Thu Aug 06 2020 21:41:21 GMT+0200 (Mitteleuropäische Sommerzeit),correct,167,0,37725,N,TRUE,594|549|629|575|505|549|881,Y,Y,No,581|498|475|454|639|586|1208|868|1242|839|633|529|469|515|464,filler,1.59675E+12,I planted tomato plants in my backyard.,22,,,Y,Bachelor or Master,Press the spacebar to reveal the next words / sentence.,"By the time the tomatoes became ripe, wild animals had already eaten most of them.",785,B2,next,Yes,female,12,1.59674E+12,41.00033333,none,key_press_trials[0]
2142,Did my parents save money by entirely avoiding expensive hotels?,Thu Aug 06 2020 21:41:21 GMT+0200 (Mitteleuropäische Sommerzeit),correct,167,0,28469,N,FALSE,474|464|525|484|614|545|569|464|2393|510|484|535|574|519|714,N,N,No,593|581|474|535|630|702,cancel_strong,1.59675E+12,"When they returned, I reviewed each of the receipts for my family's trip to Europe.",22,,"In fact, they all were because my family loves luxurious holidays.",Y,Bachelor or Master,Press the spacebar to reveal the next words / sentence.,Some of their hotels were expensive.,539|485|459|490|510|558|490|654|455|604|691,B2,next,Yes,female,13,1.59674E+12,41.00033333,none,key_press_trials[0]
2142,Did the mouse find a way into the plastic container?,Thu Aug 06 2020 21:41:21 GMT+0200 (Mitteleuropäische Sommerzeit),correct,167,0,22005,N,TRUE,366|277|321|395|385|437|416|441|558,Y,Y,No,703|515|484|525|484|495|590|593|506|648|595|574|490|519|580|648|809,filler,1.59675E+12,I have seen a mouse living in my apartment.,22,,,Y,Bachelor or Master,Press the spacebar to reveal the next words / sentence.,"Yesterday, it ate a bar of chocolate, even though the candy was in a closed plastic container.",775,B2,next,Yes,female,14,1.59674E+12,41.00033333,none,key_press_trials[0]
2142,Was it dangerous for the residents to stay in town?,Thu Aug 06 2020 21:41:21 GMT+0200 (Mitteleuropäische Sommerzeit),correct,167,0,25122,N,FALSE,548|651|553|629|544|681|533|592|524|469|1027,Y,Y,No,533|436|574|594|634|1174,anaphor_weak,1.59675E+12,"Before the hurricane landed, I volunteered to help out in town.",22,,The rest stayed at home and foolishly risked their lives.,Y,Bachelor or Master,Press the spacebar to reveal the next words / sentence.,Some of the residents had evacuated.,525|507|597|504|520|519|899|590|625|539,B2,next,Yes,female,15,1.59674E+12,41.00033333,none,key_press_trials[0]
2142,"While the song was on, was I paying attention to my surroundings?",Thu Aug 06 2020 21:41:21 GMT+0200 (Mitteleuropäische Sommerzeit),correct,167,0,28919,N,TRUE,750|373|430|495|443|465|452|577|437|428|450|509|641,N,N,No,475|668|656|534|489|476|514,filler,1.59675E+12,"When I was driving to work, my favorite song came on the radio.",22,,"Afterwards, I realized that my windows had been open and other drivers had been staring at me.",Y,Bachelor or Master,Press the spacebar to reveal the next words / sentence.,I started to sing along really loudly.,758|479|536|464|520|489|519|517|548|540|480|518|505|577|710|530|881,B2,next,Yes,female,16,1.59674E+12,41.00033333,none,key_press_trials[0]
2142,Were any of my predictions confirmed by my research?,Thu Aug 06 2020 21:41:21 GMT+0200 (Mitteleuropäische Sommerzeit),correct,167,0,30563,N,FALSE,402|418|384|375|484|449|442|712|819|556|588|411|733|475|494|561,Y,Y,No,455|403|486|688|421|577,cancel_weak,1.59675E+12,"To check on the progress of my research, I quickly scanned the experiments in the lab.",22,,"In fact, they all were so I should be able to publish the results.",Y,Bachelor or Master,Press the spacebar to reveal the next words / sentence.,Some of my predictions were correct.,456|504|449|413|421|440|544|479|455|440|484|465|479|451,B2,next,Yes,female,17,1.59674E+12,41.00033333,none,key_press_trials[0]
2142,Is the play a musical?,Thu Aug 06 2020 21:41:21 GMT+0200 (Mitteleuropäische Sommerzeit),correct,167,0,45582,N,TRUE,828|476|459|499|385|356|473,Y,Y,No,440|465|678|490|419|455|440,filler,1.59675E+12,Over the weekend I saw a play.,22,,If the actors could sing it would sound nicer.,Y,Bachelor or Master,Press the spacebar to reveal the next words / sentence.,The student theatre group put it on.,471|454|493|465|446|654|476|452|610,B2,next,Yes,female,18,1.59674E+12,41.00033333,none,key_press_trials[0]
2142,Were all of the gold watches genuine?,Thu Aug 06 2020 21:41:21 GMT+0200 (Mitteleuropäische Sommerzeit),correct,167,0,30860,N,FALSE,380|430|415|360|429|434|499|960|1098|1154|588|526|604|495|849|599|1179,N,N,No,421|498|444|415|414|505|519|634,literal_strong,1.59675E+12,"To make sure the company didn't receive fraudulent merchandise, I carefully inspected the new shipment of jewelry.",22,,"The rest were real, but the company is still planning to sue.",Y,Bachelor or Master,Press the spacebar to reveal the next words / sentence.,Only some of the gold watches were fakes.,460|400|399|464|463|410|490|436|414|619|461|1133,B2,next,Yes,female,19,1.59674E+12,41.00033333,none,key_press_trials[0]
2142,Did my trouble with the windmill cause me to lose the game?,Thu Aug 06 2020 21:41:21 GMT+0200 (Mitteleuropäische Sommerzeit),correct,167,0,30877,N,TRUE,439|375|503|445|474|372|449|1118|579,N,N,No,464|430|449|405|439|416|439|1184|518|595,filler,1.59675E+12,On Saturday my friends and I played miniature golf.,22,,"At one hole, my ball got stuck on a windmill, but at the next, I got a hole in one.",Y,Bachelor or Master,Press the spacebar to reveal the next words / sentence.,"I played pretty well, but my scores fluctuated a lot.",416|379|461|502|520|429|530|455|513|697|837|487|478|509|434|455|439|476|429|579,B2,next,Yes,female,20,1.59674E+12,41.00033333,none,key_press_trials[0]
2142,Did my client have real-estate investments?,Thu Aug 06 2020 21:41:21 GMT+0200 (Mitteleuropäische Sommerzeit),correct,167,0,27851,N,FALSE,355|455|380|715|443|1763|1196|783|689|865,Y,Y,No,510|440|483|865|830|763|983,anaphor_strong,1.59675E+12,"At my client's request, I meticulously compiled the investment report.",22,,The others were successful in spite of the recent economic downturn.,Y,Bachelor or Master,Press the spacebar to reveal the next words / sentence.,Some of the real-estate investments lost money.,458|510|398|581|533|493|432|446|630|683|713,B2,next,Yes,female,21,1.59674E+12,41.00033333,none,key_press_trials[0]
2142,Was my bookshelf sturdy?,Thu Aug 06 2020 21:41:21 GMT+0200 (Mitteleuropäische Sommerzeit),incorrect,167,0,32304,N,TRUE,653|570|384|429|786|609|444|785,N,Y,No,605|474|454|516|484|573|471|438|501|395|613|615|444|419|555,filler,1.59675E+12,I built a new bookshelf for my bedroom.,22,,"The next day, it fell apart again.",Y,Bachelor or Master,Press the spacebar to reveal the next words / sentence.,"It was very difficult to do, because I lost the instructions for putting it together.",474|465|519|490|495|694|703,B2,next,Yes,female,22,1.59674E+12,41.00033333,none,key_press_trials[0]
2142,Are there liquid nitrogen containers in the laboratory?,Thu Aug 06 2020 21:41:21 GMT+0200 (Mitteleuropäische Sommerzeit),correct,167,0,29455,N,FALSE,966|598|485|574|666|533|560|833|520|412|532|679|599|670|755,Y,Y,No,533|506|468|465|394|454|591|974|574|674|354|953,literal_weak,1.59675E+12,"To keep the laboratory well stocked, I occasionally look at which chemicals are being used.",22,,The others were normal but I decided to order more anyway.,Y,Bachelor or Master,Press the spacebar to reveal the next words / sentence.,"Today, only some of the liquid nitrogen containers needed to be refilled.",423|430|399|465|400|374|495|470|459|481|553,B2,next,Yes,female,23,1.59674E+12,41.00033333,none,key_press_trials[0]
2142,Am I well yet?,Thu Aug 06 2020 21:41:21 GMT+0200 (Mitteleuropäische Sommerzeit),incorrect,167,0,19169,N,TRUE,572|420|379|474|465|444|460|463|541,N,Y,No,529|485|823|551|4344,filler,1.59675E+12,I got sick with a cold over the weekend.,22,,,Y,Bachelor or Master,Press the spacebar to reveal the next words / sentence.,I am still taking decongestants.,452,B2,next,Yes,female,24,1.59674E+12,41.00033333,none,key_press_trials[0]
2142,Had the store sold out all of its leather couches before the furniture sale?,Thu Aug 06 2020 21:41:21 GMT+0200 (Mitteleuropäische Sommerzeit),correct,167,0,42606,N,FALSE,650|539|539|575|429|955|405|483|774|460|680|788,N,N,No,530|460|424|484|645|527|478|748,cancel_strong,1.59675E+12,"After the furniture sale, I catalogued all the merchandise in the store.",22,,"In fact, they all had since they were stylish and cheap.",Y,Bachelor or Master,Press the spacebar to reveal the next words / sentence.,Some of the leather couches had been sold.,634|465|509|333|436|514|535|540|574|408|567,B2,next,Yes,female,25,1.59674E+12,41.00033333,none,key_press_trials[0]
2142,Did I get into an accident on the highway?,Thu Aug 06 2020 21:41:21 GMT+0200 (Mitteleuropäische Sommerzeit),incorrect,167,0,32757,N,TRUE,553|415|415|425|504|392|582|401|438|440|409|481|483|442|423|460|524|564|740,N,Y,No,564|430|424|430|573|397|438|424|466|512|420|495|695,filler,1.59675E+12,"When I was driving on the highway, a car nearly crashed into me because it was going too fast.",22,,It looked to me like a police officer was giving the driver a ticket.,Y,Bachelor or Master,Press the spacebar to reveal the next words / sentence.,"Later on, I noticed the same car on the side of the road.",545|404|430|422|462|449|535|469|460|545|478|665|434|813,B2,next,Yes,female,26,1.59674E+12,41.00033333,none,key_press_trials[0]
2142,Was the bus empty during the accident?,Thu Aug 06 2020 21:41:21 GMT+0200 (Mitteleuropäische Sommerzeit),correct,167,0,27484,N,FALSE,474|465|406|443|441|475|483|435|469|574|504|640|560|565|603|539|565|829,N,N,No,599|470|425|548|395|517|523,anaphor_weak,1.59675E+12,I stopped to see if I could help with the bus accident on the side of the highway.,22,,The others were killed on impact and there was no opportunity to save them.,Y,Bachelor or Master,Press the spacebar to reveal the next words / sentence.,Some of the passengers were still alive.,426|415|432|345|435|529|480|434|536|538|620|637|462|564,B2,next,Yes,female,27,1.59674E+12,41.00033333,none,key_press_trials[0]
2142,Did the people at the bake sale think my brownies were disgusting?,Thu Aug 06 2020 21:41:21 GMT+0200 (Mitteleuropäische Sommerzeit),correct,167,0,28259,N,TRUE,484|524|521|428|460|559|700|478|800|605|595|479|669|615,N,N,No,410|440|533|505|505|435|444|535|518|446|559,filler,1.59675E+12,My daughter asked me to make brownies for the bake sale at her school.,22,,They were so popular that some of the other parents asked me for the recipe.,Y,Bachelor or Master,Press the spacebar to reveal the next words / sentence.,"At the sale, my brownies sold out during the first hour.",491|423|436|494|488|480|645|444|459|437|543|495|469|524|535,B2,next,Yes,female,28,1.59674E+12,41.00033333,none,key_press_trials[0]
2142,Did anyone in my family cook spicy food last week?,Thu Aug 06 2020 21:41:21 GMT+0200 (Mitteleuropäische Sommerzeit),correct,167,0,22155,N,FALSE,763|529|449|490|435|514|944,Y,Y,No,584|435|439|485|450|564,cancel_weak,1.59675E+12,"Last week, I attended a family potluck.",22,,"In fact, they all were but fortunately I love spicy food.",Y,Bachelor or Master,Press the spacebar to reveal the next words / sentence.,Some of the dishes were spicy.,565|479|389|529|455|464|537|588|539|535|705,B2,next,Yes,female,29,1.59674E+12,41.00033333,none,key_press_trials[0]
2142,Was I lucky to have noticed the object in the water?,Thu Aug 06 2020 21:41:21 GMT+0200 (Mitteleuropäische Sommerzeit),incorrect,167,0,30536,N,TRUE,507|363|584|619|430|480|489|516|505|528|504|473|621|460|624,Y,N,No,434|372|478|445|519|475|504|420|403|825|460,filler,1.59675E+12,I was swimming laps in my local pool when I noticed something at the bottom.,22,,"Nobody claimed it when I asked the people nearby, so I kept it.",Y,Bachelor or Master,Press the spacebar to reveal the next words / sentence.,"When I dove down, I realized it was a twenty-dollar bill.",734|631|435|533|489|479|477|581|681|534|481|433|540,B2,next,Yes,female,30,1.59674E+12,41.00033333,none,key_press_trials[0]
2142,Did the manager have a meeting with any of the accountants?,Thu Aug 06 2020 21:41:21 GMT+0200 (Mitteleuropäische Sommerzeit),correct,167,0,30043,N,FALSE,430|439|494|490|430|509|499|605|630|435|495|748,Y,Y,No,430|464|510|415|580|828|495|520,literal_strong,1.59675E+12,"This morning, I took attendance at an important meeting with the manager.",22,,The rest were missing because they had to audit the company's finances before the end of the quarter.,Y,Bachelor or Master,Press the spacebar to reveal the next words / sentence.,Only some of the company's accountants were there.,499|580|430|462|463|534|444|448|660|470|575|680|663|545|549|616|589|1128,B2,next,Yes,female,31,1.59674E+12,41.00033333,none,key_press_trials[0]
2142,Did I still read a book?,Thu Aug 06 2020 21:41:21 GMT+0200 (Mitteleuropäische Sommerzeit),incorrect,167,0,18364,N,TRUE,465|305|410|454|408|787|529|564|449|460|410,Y,N,No,505|470|484|390|479|474|585|483|740|999,filler,1.59675E+12,"After dinner, I listen to Celtic music and read a book.",22,,,Y,Bachelor or Master,Press the spacebar to reveal the next words / sentence.,Today I listened to classic rock instead of Celtic music.,603,B2,next,Yes,female,32,1.59674E+12,41.00033333,none,key_press_trials[0]
2142,Did it rain earlier today?,Thu Aug 06 2020 21:41:21 GMT+0200 (Mitteleuropäische Sommerzeit),incorrect,167,0,36936,N,FALSE,879|755|566|503|538|475|584|574|481|788|750|784|454|709,Y,N,No,475|454|505|504|732|571|705|545|564,anaphor_strong,1.59675E+12,"Earlier today, I was leading a small group of tourists around the sights downtown.",22,,The rest were dry because they had remembered their umbrellas.,Y,Bachelor or Master,Press the spacebar to reveal the next words / sentence.,Some of tourists got soaked by the rain storm.,414|411|374|493|415|455|408|570|430|787,B2,next,Yes,female,33,1.59674E+12,41.00033333,none,key_press_trials[0]
2142,Do my parents always obey the law?,Thu Aug 06 2020 21:41:21 GMT+0200 (Mitteleuropäische Sommerzeit),correct,167,0,28307,N,TRUE,500|569|535|508|416|475|1229|513|525|518|525|435|510|408|432|538|555|905,N,N,No,571|519|479|614|660|864|475|678,filler,1.59675E+12,"When I talked to my parents yesterday, they told me that they did not pay taxes this year.",22,,"I am worried about their decision, since they might go to prison.",Y,Bachelor or Master,Press the spacebar to reveal the next words / sentence.,They have decided that all taxation is theft.,424|445|440|439|409|441|543|375|480|414|398|445,B2,next,Yes,female,34,1.59674E+12,41.00033333,none,key_press_trials[0]
2142,Had all of my favorite rides been removed from Disney World?,Thu Aug 06 2020 21:41:21 GMT+0200 (Mitteleuropäische Sommerzeit),correct,167,0,24518,N,FALSE,445|458|480|545|459|429|506|478|449|511|609|533,N,N,No,461|444|443|410|485|479|484|451|837,literal_weak,1.59675E+12,"When I visited Disney World, I quickly walked around the amusement park.",22,,The rest were shut_down since they were no longer popular.,Y,Bachelor or Master,Press the spacebar to reveal the next words / sentence.,Only some of my favorite rides were still running.,415|427|442|453|675|384|369|486|543|626,B2,next,Yes,female,35,1.59674E+12,41.00033333,none,key_press_trials[0]
2142,Did my family remember my birthday this year?,Thu Aug 06 2020 21:41:21 GMT+0200 (Mitteleuropäische Sommerzeit),correct,167,0,26887,N,TRUE,399|275|674|424|465|489|410|444|501|494|500,Y,Y,No,405|404|409|429|376|874|464|989|684|491|423|591,filler,1.59675E+12,"For my birthday, my family bought me an ice cream cake.",22,,The cake also had my name on the top in blue and green icing.,Y,Bachelor or Master,Press the spacebar to reveal the next words / sentence.,"The inside of it was mint-chocolate chip, my favorite ice cream flavor.",466|394|449|769|394|455|415|444|435|386|468|529|580|849,B2,next,Yes,female,36,1.59674E+12,41.00033333,none,key_press_trials[0]
2142,Were the teachers insensitive to the feelings of the students?,Thu Aug 06 2020 21:41:21 GMT+0200 (Mitteleuropäische Sommerzeit),correct,167,0,48271,N,FALSE,494|374|794|471|479|484|465|489|645|5908|1798|503|607|609|1309,N,N,No,489|501|439|535|754|584|769,cancel_strong,1.59675E+12,The PTA picked me to organize every award for the assembly at my daughter's school.,22,,"In fact, they all did because the teachers didn't want any of them to feel left out.",Y,Bachelor or Master,Press the spacebar to reveal the next words / sentence.,Some of the honors students received prizes.,425|401|388|384|390|405|459|441|398|460|474|390|424|384|431|404|436,B2,next,Yes,female,37,1.59674E+12,41.00033333,none,key_press_trials[0]
2142,Do I like cherry gumdrops?,Thu Aug 06 2020 21:41:21 GMT+0200 (Mitteleuropäische Sommerzeit),correct,167,0,39864,N,TRUE,467|514|469|7995|1893,N,N,No,290|356|293|450|454|894|430|754|592|823,filler,1.59675E+12,I can't stand fruit-flavored candy.,22,,,Y,Bachelor or Master,Press the spacebar to reveal the next words / sentence.,"I make exceptions for lemon lollipops and chewy candy, though.",589,B2,next,Yes,female,38,1.59674E+12,41.00033333,none,key_press_trials[0]
2142,Did the library's reference section contain dictionaries?,Thu Aug 06 2020 21:41:21 GMT+0200 (Mitteleuropäische Sommerzeit),correct,167,0,34305,N,FALSE,398|464|541|419|521|649|693|675|414|465|676|799|778|1249,Y,Y,No,664|400|423|954|450|947|1766,anaphor_weak,1.59675E+12,The librarian told me about how annoying it was to reorganize the reference section.,22,,The others were labeled appropriately though a few of them had been shelved in the wrong place.,Y,Bachelor or Master,Press the spacebar to reveal the next words / sentence.,Some of the dictionaries were labeled incorrectly.,323|356|379|341|903|464|425|404|421|425|378|370|675|423|360|501|489,B2,next,Yes,female,39,1.59674E+12,41.00033333,none,key_press_trials[0]
2142,Did I see a doctor after I started feeling ill?,Thu Aug 06 2020 21:41:21 GMT+0200 (Mitteleuropäische Sommerzeit),correct,167,0,27412,N,TRUE,480|337|293|301|364|343|491|351|408|859|454|501|539|679|689,Y,Y,No,360|445|394|379|461|413|860|630|488|575|684,filler,1.59675E+12,"After I got back from my trip to the equator, I started feeling very ill.",22,,"Luckily, there are drugs which effectively treat it, and I am now healthy.",Y,Bachelor or Master,Press the spacebar to reveal the next words / sentence.,My doctor told me I had contracted a rare tropical disease.,663|467|380|559|444|664|503|486|465|404|450|391|613,B2,next,Yes,female,40,1.59674E+12,41.00033333,none,key_press_trials[0]
2142,Were my office's computers safe from damaging software?,Thu Aug 06 2020 21:41:21 GMT+0200 (Mitteleuropäische Sommerzeit),correct,167,0,35444,N,FALSE,420|418|467|439|1048|514|566|608|571|998|529|614|646|8505,N,N,No,415|349|380|547|778|824,cancel_weak,1.59675E+12,"As the office's main technician, I had been alerted to the dangerous new virus.",22,,"In fact, they all were and the virus nearly destroyed the whole system.",Y,Bachelor or Master,Press the spacebar to reveal the next words / sentence.,Some of our computers were infected.,339|335|379|325|420|444|454|401|459|510|378|489|431,B2,next,Yes,female,41,1.59674E+12,41.00033333,none,key_press_trials[0]
2142,Did my mother write to me?,Thu Aug 06 2020 21:41:21 GMT+0200 (Mitteleuropäische Sommerzeit),correct,167,0,18218,N,TRUE,690|393|414|336|448|461|435|500|420|3670,N,N,No,343|395|310|449|445|375|431|358|419,filler,1.59675E+12,I turned on my computer today to check my email.,22,,I had no new email.,Y,Bachelor or Master,Press the spacebar to reveal the next words / sentence.,I have been waiting to hear from my mother.,414|416|434|403|405,B2,next,Yes,female,42,1.59674E+12,41.00033333,none,key_press_trials[0]
2142,Was there a school bus sitting in the parking lot?,Thu Aug 06 2020 21:41:21 GMT+0200 (Mitteleuropäische Sommerzeit),incorrect,167,0,31510,N,FALSE,400|319|351|373|525|575|394|550|568|526|550,Y,N,No,414|404|475|406|504|523|570,literal_strong,1.59675E+12,"In the school parking lot, I carefully inspected an old bus.",22,,The others were fine so it would not cost too much to fix it.,Y,Bachelor or Master,Press the spacebar to reveal the next words / sentence.,Only some of its tires were flat.,393|380|384|515|386|400|408|494|565|404|394|421|404|355,B2,next,Yes,female,43,1.59674E+12,41.00033333,none,key_press_trials[0]
2142,Did the weather prevent me from having a picnic?,Thu Aug 06 2020 21:41:21 GMT+0200 (Mitteleuropäische Sommerzeit),incorrect,167,0,22917,N,TRUE,424|409|416|523|365|519|374|461|325,N,Y,No,549|420|679|709|779|530|404|435|470|434|485|375|424|433,filler,1.59675E+12,I planned to have a picnic in the park.,22,,"However, the day turned out sunny after all.",Y,Bachelor or Master,Press the spacebar to reveal the next words / sentence.,"The weather forecast predicted rain, so I thought I would have to cancel it.",318|551|414|454|430|444|419|486,B2,next,Yes,female,44,1.59674E+12,41.00033333,none,key_press_trials[0]
2142,Did the math textbook have problems for readers to solve?,Thu Aug 06 2020 21:41:21 GMT+0200 (Mitteleuropäische Sommerzeit),correct,167,0,34764,N,FALSE,338|390|454|781|528|531|479|430|493|569|534|720,Y,Y,No,453|265|564|484|616|675,anaphor_strong,1.59675E+12,"At a friend's suggestion, I completely worked through an entire math textbook.",22,,The others were straightforward and I feel like I learned a lot.,Y,Bachelor or Master,Press the spacebar to reveal the next words / sentence.,Some of its problems were difficult.,476|290|470|833|430|455|444|410|374|465|431|418,B2,next,Yes,female,45,1.59674E+12,41.00033333,none,key_press_trials[0]
2142,Did the writer ask me before inserting the slur into his article?,Thu Aug 06 2020 21:41:21 GMT+0200 (Mitteleuropäische Sommerzeit),correct,167,0,40456,N,TRUE,400|414|845|505|418|609|819|680|416|503|485|679|560|628|631|524|719|539|456|468|785,N,N,No,744|505|1144|568|810|480|688|655|534|506|513|450|514,filler,1.59675E+12,"As the editor of the newspaper, I have to make sure that the paper does not publish anything that is offensive.",22,,I issued a long apology on the front page of the paper the next day.,Y,Bachelor or Master,Press the spacebar to reveal the next words / sentence.,"Unfortunately, a disgruntled writer slipped a racial slur into an article last week.",769|606|443|544|663|629|450|570|449|430|504|515|512|448|495,B2,next,Yes,female,46,1.59674E+12,41.00033333,none,key_press_trials[0]
2142,Has my portfolio lost value this year?,Thu Aug 06 2020 21:41:21 GMT+0200 (Mitteleuropäische Sommerzeit),correct,167,0,25599,N,FALSE,357|312|500|390|409|365|395|339|386|413|575|645|482|931,Y,Y,No,424|506|386|374|479|444|519,literal_weak,1.59675E+12,"While eating breakfast, I had little time to skim the stock prices from yesterday.",22,,The others were relatively steady but my portfolio was still down for the year.,Y,Bachelor or Master,Press the spacebar to reveal the next words / sentence.,Only some of my stocks went up.,589|379|410|610|583|446|479|595|504|399|470|430|448|465,B2,next,Yes,female,47,1.59674E+12,41.00033333,none,key_press_trials[0]
2142,Is tonight Sunday?,Thu Aug 06 2020 21:41:21 GMT+0200 (Mitteleuropäische Sommerzeit),incorrect,167,0,38825,N,TRUE,363|365|365|479|505|405|399|330|649|400|436|488|424|366|508|635|1309,Y,N,No,434|485|479|450|419|460|404|445|591,filler,1.59675E+12,"I love to play card games with my friends, and we are going to play Hearts tonight.",22,,"After a long day of study and rest, cards are the perfect way to relax.",Y,Bachelor or Master,Press the spacebar to reveal the next words / sentence.,We always enjoy playing a game on Sunday evening.,440|524|475|423|456|444|499|405|561|548|475|440|453|400|455,B2,next,Yes,female,48,1.59674E+12,41.00033333,none,key_press_trials[0]
2030,Had all of my favorite rides been removed from Disney World?,Sat Aug 01 2020 19:09:57 GMT+0200 (Mitteleuropäische Sommerzeit),correct,167,5,16743,N,FALSE,296|355|300|279|371|378|306|320|318|402|321|467,N,N,No,353|361|323|345|348|339|332|298,anaphor_weak,1.5963E+12,"When I visited Disney World, I quickly walked around the amusement park.",58,,The rest were shut_down since they were no longer popular.,Y,Beyond Master,Press the space bar to reveal the next words/sentence,Some of my favorite rides were still running.,306|298|317|308|313|343|386|570|476|494,B1,next,Yes,female,1,1.5963E+12,31.82408333,none,key_press_trials[5]
2030,Did my mother write to me?,Sat Aug 01 2020 19:09:57 GMT+0200 (Mitteleuropäische Sommerzeit),correct,167,5,16065,N,TRUE,424|420|403|354|318|479|437|437|386|536,N,N,No,357|356|358|537|375|412|348|474|508,filler,1.5963E+12,I turned on my computer today to check my email.,58,,I had no new email.,Y,Beyond Master,Press the space bar to reveal the next words/sentence,I have been waiting to hear from my mother.,448|480|382|405|730,B1,next,Yes,female,2,1.5963E+12,31.82408333,none,key_press_trials[5]
2030,Was there a dog in the veterinary clinic?,Sat Aug 01 2020 19:09:57 GMT+0200 (Mitteleuropäische Sommerzeit),correct,167,5,23109,N,FALSE,490|303|395|389|384|549|459|568|597|415|481|452|438|521,Y,Y,No,505|346|347|413|437|627|420,anaphor_strong,1.5963E+12,"While working in the veterinary clinic, I closely examined the mouth of large bulldog.",58,,The rest were intact so it should still be able to eat solid food.,Y,Beyond Master,Press the space bar to reveal the next words/sentence,Some of the dog's teeth were missing.,372|318|345|446|357|348|365|327|518|481|475|451|373|557,B1,next,Yes,female,3,1.5963E+12,31.82408333,none,key_press_trials[5]
2030,Do I wash my favorite shirt every week?,Sat Aug 01 2020 19:09:57 GMT+0200 (Mitteleuropäische Sommerzeit),incorrect,167,5,18282,N,TRUE,758|471|377|467|385|450|543,Y,N,No,478|420|364|413|369|340|316|345|361|413|496,filler,1.5963E+12,I wear my favorite shirt every week.,58,,I always wash my shirts before I wear them again.,Y,Beyond Master,Press the space bar to reveal the next words/sentence,I make sure to wash some of my clothes each week. ,352|421|392|396|445|390|380|452|366|555,B1,next,Yes,female,4,1.5963E+12,31.82408333,none,key_press_trials[5]
2030,Were any of my predictions confirmed by my research?,Sat Aug 01 2020 19:09:57 GMT+0200 (Mitteleuropäische Sommerzeit),incorrect,167,5,24098,N,FALSE,468|311|306|413|528|465|461|391|444|542|617|494|494|508|540|515,Y,N,No,441|431|383|506|1043|587|635,literal_strong,1.5963E+12,"To check on the progress of my research, I meticulously recorded the results of the experiments.",58,,The rest were wrong so my theory must be mistaken.,Y,Beyond Master,Press the space bar to reveal the next words/sentence,Only some of my predictions were correct.,468|361|365|410|519|398|446|519|431|674,B1,next,Yes,female,5,1.5963E+12,31.82408333,none,key_press_trials[5]
2030,Was I satisfied with my haircut?,Sat Aug 01 2020 19:09:57 GMT+0200 (Mitteleuropäische Sommerzeit),correct,167,5,17154,N,TRUE,543|452|418|436|449|423|438|498|430|584,N,N,No,399|427|365|383|607|532|419|438|528|480|436,filler,1.5963E+12,I got my hair cut at a salon in town.,58,,Now my hair looks completely different.,Y,Beyond Master,Press the space bar to reveal the next words/sentence,"I wanted a trim, but the stylist cut it too short.",484|359|380|342|572|637,B1,next,Yes,female,6,1.5963E+12,31.82408333,none,key_press_trials[5]
2030,Did my parents save money by entirely avoiding expensive hotels?,Sat Aug 01 2020 19:09:57 GMT+0200 (Mitteleuropäische Sommerzeit),incorrect,167,5,22132,N,FALSE,483|392|417|460|522|535|527|565|529|550|440|475,N,Y,No,492|398|368|342|415|420|584,literal_weak,1.5963E+12,"When they returned, my family told me about their trip to Europe.",58,,The rest were cheap despite my family's love for luxurious holidays.,Y,Beyond Master,Press the space bar to reveal the next words/sentence,Only some of their hotels were expensive.,479|321|332|318|347|450|504|495|522|898|1163,B1,next,Yes,female,7,1.5963E+12,31.82408333,none,key_press_trials[5]
2030,Am I also majoring in Philosophy?,Sat Aug 01 2020 19:09:57 GMT+0200 (Mitteleuropäische Sommerzeit),incorrect,167,5,21388,N,TRUE,530|471|671|532|491|543|679,N,Y,No,972|487|387|445|384|388|422|559|711,filler,1.5963E+12,Today I declared a major in Psychology.,58,,I cannot do more than one major and minor or two majors.,Y,Beyond Master,Press the space bar to reveal the next words/sentence,I am also interested in a minor in Theatre.,527|675|427|358|321|354|651|480|460|466|505|1055,B1,next,Yes,female,8,1.5963E+12,31.82408333,none,key_press_trials[5]
2030,Was it dangerous for the residents to stay in town?,Sat Aug 01 2020 19:09:57 GMT+0200 (Mitteleuropäische Sommerzeit),correct,167,5,22449,N,FALSE,481|474|759|1088|410|582|778|475|462|467|438,Y,Y,No,471|332|389|553|504|833,cancel_weak,1.5963E+12,"Before the hurricane landed, I volunteered to help out in town.",58,,"In fact, they all did and, as a result, they survived the storm.",Y,Beyond Master,Press the space bar to reveal the next words/sentence,Some of the residents had evacuated.,343|319|373|489|510|405|757|403|440|609|1229|904|643,B1,next,Yes,female,9,1.5963E+12,31.82408333,none,key_press_trials[5]
2030,Did I use my time in the airport productively?,Sat Aug 01 2020 19:09:57 GMT+0200 (Mitteleuropäische Sommerzeit),incorrect,167,5,27982,N,TRUE,540|445|422|455|518|702|608|423|471|451|1060,N,Y,No,373|494|471|662|337|444|452|387|395|450|422|562|799|423|605|408|454|581|373|410,filler,1.5963E+12,"Because of the snow storm, my plane was eight hours late.",58,,I ended up solving crossword puzzles for most of the time.,Y,Beyond Master,Press the space bar to reveal the next words/sentence,"Though I tried to make the best of my time in the airport, there wasn't much for me to do.",392|412|496|471|762|459|420|428|415|458|422,B1,next,Yes,female,10,1.5963E+12,31.82408333,none,key_press_trials[5]
2030,Were all of my bottles of wine safe in the basement?,Sat Aug 01 2020 19:09:57 GMT+0200 (Mitteleuropäische Sommerzeit),correct,167,5,21077,N,FALSE,592|536|324|495|1279|594|539|535|558|532|798,N,N,No,469|416|371|429|433|468|536|497,cancel_strong,1.5963E+12,"After my house was burglarized, I carefully inventoried my wine collection.",58,,"In fact, they all were even though I had secured them.",Y,Beyond Master,Press the space bar to reveal the next words/sentence,Some of the bottles of Chardonnay were missing.,419|335|387|421|486|446|477|500|553|518|699,B1,next,Yes,female,11,1.5963E+12,31.82408333,none,key_press_trials[5]
2030,Do I still enjoy raspberries?,Sat Aug 01 2020 19:09:57 GMT+0200 (Mitteleuropäische Sommerzeit),correct,167,5,20015,N,TRUE,453|502|460|494|438|481|600,N,N,No,341|315|314|412|382|382|347|674|541|407|469|489|529|771|754|303|433|514|730,filler,1.5963E+12,My favorite fruit used to be raspberries.,58,,,Y,Beyond Master,Press the space bar to reveal the next words/sentence,"When I was younger, I saw a bug in one of my raspberries, and I haven't eaten one since.",2244,B1,next,Yes,female,12,1.5963E+12,31.82408333,none,key_press_trials[5]
2030,Were my office's computers safe from damaging software?,Sat Aug 01 2020 19:09:57 GMT+0200 (Mitteleuropäische Sommerzeit),correct,167,5,21949,N,FALSE,524|331|370|522|566|884|381|345|398|552|464|759|517|495,N,N,No,458|348|343|477|451|514,anaphor_weak,1.5963E+12,"As the office's main technician, I had been alerted to the dangerous new virus.",58,,The rest were clean because their owners had been very cautious.,Y,Beyond Master,Press the space bar to reveal the next words/sentence,Some of our computers were infected.,349|356|412|365|350|333|396|361|474|521|875,B1,next,Yes,female,13,1.5963E+12,31.82408333,none,key_press_trials[5]
2030,Had my phone rung during the show?,Sat Aug 01 2020 19:09:57 GMT+0200 (Mitteleuropäische Sommerzeit),correct,167,5,25353,N,TRUE,448|402|325|361|490|498|433|524,N,N,No,342|294|294|314|856|334|438|338|370|397|388|504|446,filler,1.5963E+12,I lost my cell phone at a theater.,58,,"I couldn't even find it by calling it and listening for the ring, because I had turned it off before the performance.",Y,Beyond Master,Press the space bar to reveal the next words/sentence,"I looked under all the seats around me, but I didn't see it.",472|432|311|334|458|354|388|301|334|461|379|409|870|360|533|374|348|615|392|650|654|807,B1,next,Yes,female,14,1.5963E+12,31.82408333,none,key_press_trials[5]
2030,Was the babysitter smoking pot instead of looking after my children?,Sat Aug 01 2020 19:09:57 GMT+0200 (Mitteleuropäische Sommerzeit),correct,167,5,24222,N,FALSE,481|376|483|863|438|513|479|768|462|796,N,N,No,427|369|366|332|375|409|387|601|455|773,anaphor_strong,1.5963E+12,"After the babysitter left, I carefully examined my liquor collection.",58,,"The others were untouched, but I was still concerned and decided to call her parents.",Y,Beyond Master,Press the space bar to reveal the next words/sentence,Some of my new bottles of peach schnapps were opened.,342|440|411|548|533|434|475|514|498|679|369|682|428|479|539,B1,next,Yes,female,15,1.5963E+12,31.82408333,none,key_press_trials[5]
2030,Did I eat ice cream that evening?,Sat Aug 01 2020 19:09:57 GMT+0200 (Mitteleuropäische Sommerzeit),correct,167,5,23301,N,TRUE,511|486|419|416|526|490|440|458,Y,Y,No,359|355|344|415|387|488|601|369|315|357|393|393|505|364|414|450|426|505,filler,1.5963E+12,I went to the movie theater last weekend.,58,,"To pass the time, I went to the ice cream parlor next door.",Y,Beyond Master,Press the space bar to reveal the next words/sentence,"The movie I'd planned on seeing was sold out, so I bought tickets for the next available show.",316|387|403|451|682|383|337|320|344|446|415|430|498,B1,next,Yes,female,16,1.5963E+12,31.82408333,none,key_press_trials[5]
2030,Did it rain earlier today?,Sat Aug 01 2020 19:09:57 GMT+0200 (Mitteleuropäische Sommerzeit),correct,167,5,23608,N,FALSE,679|570|486|420|335|343|396|459|406|422|570|517|909|1634,Y,Y,No,422|362|372|376|396|361|748|458|397|516,literal_strong,1.5963E+12,"Earlier today, I was leading a small group of tourists around the sights downtown.",58,,The rest were dry because they had remembered their umbrellas.,Y,Beyond Master,Press the space bar to reveal the next words/sentence,Only some of tourists got soaked by the rain storm.,404|355|469|513|517|344|379|303|600|803,B1,next,Yes,female,17,1.5963E+12,31.82408333,none,key_press_trials[5]
2030,Do I wash my sports clothes each week?,Sat Aug 01 2020 19:09:57 GMT+0200 (Mitteleuropäische Sommerzeit),correct,167,5,16317,N,TRUE,432|481|723|509|494|730,Y,Y,No,385|491|422|590|487|495,filler,1.5963E+12,Each weekend I do my laundry.,58,,My uniform gets sweaty and dirty if I wear it only once.,Y,Beyond Master,Press the space bar to reveal the next words/sentence,I have sports practice each week.,431|399|496|372|705|382|390|359|384|377|422|467,B1,next,Yes,female,18,1.5963E+12,31.82408333,none,key_press_trials[5]
2030,Did anyone in my family cook spicy food last week?,Sat Aug 01 2020 19:09:57 GMT+0200 (Mitteleuropäische Sommerzeit),correct,167,5,17064,N,FALSE,492|388|451|382|403|407|493,Y,Y,No,330|359|342|391|330|414|529,literal_weak,1.5963E+12,"Last week, I attended a family potluck.",58,,The rest were mild and I found them to be bland.,Y,Beyond Master,Press the space bar to reveal the next words/sentence,Only some of the dishes were spicy.,364|354|357|393|318|337|331|333|421|364|587,B1,next,Yes,female,19,1.5963E+12,31.82408333,none,key_press_trials[5]
2030,Did I realize that M*A*S*H took place in Asia?,Sat Aug 01 2020 19:09:57 GMT+0200 (Mitteleuropäische Sommerzeit),correct,167,5,24480,N,TRUE,377|406|417|842|466|427|409|439|373|471,Y,Y,No,429|309|283|361|357|357|326|365|446|836|534|511|392|315|556|1275,filler,1.5963E+12,Everyone knows that M*A*S*H took place during the Korean War.,58,,It's one of my favorite shows so I'm embarrassed that I did not know the lead actor.,Y,Beyond Master,Press the space bar to reveal the next words/sentence,"I just realized that Alan Alda played Hawkeye Pierce, a doctor on the television show M*A*S*H.",314|270|312|359|361|345|521|353|330|739|522|332|343|318|582|540|665,B1,next,Yes,female,20,1.5963E+12,31.82408333,none,key_press_trials[5]
2030,Had the store sold out all of its leather couches before the furniture sale?,Sat Aug 01 2020 19:09:57 GMT+0200 (Mitteleuropäische Sommerzeit),correct,167,5,21591,N,FALSE,392|369|346|645|991|515|340|352|353|476|491|1135,N,N,No,369|291|279|300|355|337|405|575,cancel_weak,1.5963E+12,"After the furniture sale, I closed down and locked up the store.",58,,"In fact, they all had since they were stylish and cheap.",Y,Beyond Master,Press the space bar to reveal the next words/sentence,Some of the leather couches had been sold.,301|304|289|324|336|308|368|709|387|580|631,B1,next,Yes,female,21,1.5963E+12,31.82408333,none,key_press_trials[5]
2030,Was I able to eat any of the tomatoes I planted?,Sat Aug 01 2020 19:09:57 GMT+0200 (Mitteleuropäische Sommerzeit),correct,167,5,16508,N,TRUE,388|452|543|481|410|425|437,Y,Y,No,359|276|257|276|520|360|323|294|734|563|352|460|425|400|544,filler,1.5963E+12,I planted tomato plants in my backyard.,58,,,Y,Beyond Master,Press the space bar to reveal the next words/sentence,"By the time the tomatoes became ripe, wild animals had already eaten most of them.",331,B1,next,Yes,female,22,1.5963E+12,31.82408333,none,key_press_trials[5]
2030,Were all of the gold watches genuine?,Sat Aug 01 2020 19:09:57 GMT+0200 (Mitteleuropäische Sommerzeit),correct,167,5,26464,N,FALSE,520|347|279|302|384|510|841|517|1465|360|390|443|537|518|766|748|631,N,N,No,370|400|352|440|507|497|517,cancel_strong,1.5963E+12,"To make sure the company didn't receive fraudulent merchandise, I carefully inspected the new shipment of jewelry.",58,,"In fact, they all were, so the company is planning to sue.",Y,Beyond Master,Press the space bar to reveal the next words/sentence,Some of the gold watches were fakes.,375|300|353|359|343|352|649|757|448|537|523|758,B1,next,Yes,female,23,1.5963E+12,31.82408333,none,key_press_trials[5]
2030,"While the song was on, was I paying attention to my surroundings?",Sat Aug 01 2020 19:09:57 GMT+0200 (Mitteleuropäische Sommerzeit),correct,167,5,23858,N,TRUE,438|263|326|302|746|869|972|395|348|326|279|399|718,N,N,No,311|319|374|375|644|469|544,filler,1.5963E+12,"When I was driving to work, my favorite song came on the radio.",58,,"Afterwards, I realized that my windows had been open and other drivers had been staring at me.",Y,Beyond Master,Press the space bar to reveal the next words/sentence,I started to sing along really loudly.,337|325|350|455|772|578|465|303|353|389|340|392|459|384|404|515|575,B1,next,Yes,female,24,1.5963E+12,31.82408333,none,key_press_trials[5]
2030,Was there a school bus sitting in the parking lot?,Sat Aug 01 2020 19:09:57 GMT+0200 (Mitteleuropäische Sommerzeit),correct,167,5,20392,N,FALSE,602|372|389|383|365|446|683|439|358|452|1472,Y,Y,No,391|293|330|586|609|463,anaphor_weak,1.5963E+12,"In the school parking lot, I passed by an old bus.",58,,The others were fine so it would not cost too much to fix it.,Y,Beyond Master,Press the space bar to reveal the next words/sentence,Some of its tires were flat.,340|347|382|371|304|379|391|385|520|535|440|429|459|455,B1,next,Yes,female,25,1.5963E+12,31.82408333,none,key_press_trials[5]
2030,Did I realize that New York City is in the United States?,Sat Aug 01 2020 19:09:57 GMT+0200 (Mitteleuropäische Sommerzeit),incorrect,167,5,30586,N,TRUE,640|1680|374|350|507|577|412|411|897|546|426|527|551|550|1153,Y,N,No,305|324|219|572|300|355|399|394|822|518|415|380|529|468|498|558|486|408|405|749,filler,1.5963E+12,Today the United Nations announced in New York City a new plan for world peace.,58,,"Luckily, the United Nations is based in New York.",Y,Beyond Master,Press the space bar to reveal the next words/sentence,I would like to be a United Nations ambassador for the United States but don't want to travel to Europe.,776|410|514|476|716|443|535|504|554,B1,next,Yes,female,26,1.5963E+12,31.82408333,none,key_press_trials[5]
2030,Were the teachers insensitive to the feelings of the students?,Sat Aug 01 2020 19:09:57 GMT+0200 (Mitteleuropäische Sommerzeit),incorrect,167,5,27423,N,FALSE,441|275|675|484|450|587|621|544|500|431|469|464|472|1027|1567,N,Y,No,453|397|450|988|663|1221|1838,anaphor_strong,1.5963E+12,The PTA picked me to organize every award for the assembly at my daughter's school.,58,,The others were not invited to attend because the teachers didn't want anyone to feel left out.,Y,Beyond Master,Press the space bar to reveal the next words/sentence,Some of the honors students received prizes.,364|317|321|351|298|468|394|544|485|376|997|408|329|311|418|384|642,B1,next,Yes,female,27,1.5963E+12,31.82408333,none,key_press_trials[5]
2030,Is the television show about aliens?,Sat Aug 01 2020 19:09:57 GMT+0200 (Mitteleuropäische Sommerzeit),correct,167,5,19541,N,TRUE,1503|430|571|532|423|526|477|406,N,N,No,353|449|484|447|636|456|435|446|754|462|494|501,filler,1.5963E+12,Tonight I will watch my favorite television show.,58,,They have a robot dog.,Y,Beyond Master,Press the space bar to reveal the next words/sentence,It is about people who travel through time in a telephone box.,448|313|416|377|455,B1,next,Yes,female,28,1.5963E+12,31.82408333,none,key_press_trials[5]
2030,Did my client have real-estate investments?,Sat Aug 01 2020 19:09:57 GMT+0200 (Mitteleuropäische Sommerzeit),correct,167,5,20139,N,FALSE,550|349|756|750|440|402|717|627|528|606,Y,Y,No,476|388|475|383|518|931|561|1049,literal_strong,1.5963E+12,"At my client's request, I meticulously compiled the investment report.",58,,The others were successful in spite of the recent economic downturn.,Y,Beyond Master,Press the space bar to reveal the next words/sentence,Only some of the real-estate investments lost money.,444|332|417|353|554|378|355|369|337|397|837,B1,next,Yes,female,29,1.5963E+12,31.82408333,none,key_press_trials[5]
2030,Have I found many restaurants with vegan dishes?,Sat Aug 01 2020 19:09:57 GMT+0200 (Mitteleuropäische Sommerzeit),correct,167,5,21445,N,TRUE,450|429|258|368|607|418|387|334|305|406|554|375|258|362|455,N,N,No,311|320|287|311|330|333|296|441|471|368|440|366|446|471,filler,1.5963E+12,"I just became vegan, so it's difficult to find restaurants with food I can eat.",58,,"When my friends want to eat out, I usually suggest we go there.",Y,Beyond Master,Press the space bar to reveal the next words/sentence,"A few blocks from my house, there's a cafe that only serves vegan food.",442|346|528|387|381|318|448|597|318|341|419|369|543,B1,next,Yes,female,30,1.5963E+12,31.82408333,none,key_press_trials[5]
2030,Did the library's reference section contain dictionaries?,Sat Aug 01 2020 19:09:57 GMT+0200 (Mitteleuropäische Sommerzeit),correct,167,5,23182,N,FALSE,473|255|394|979|332|329|276|335|396|422|402|466|429|518,Y,Y,No,323|346|314|576|316|567|363|537,literal_weak,1.5963E+12,The librarian told me about how annoying it was to reorganize the reference section.,58,,The others were labeled appropriately though a few of them had been shelved in the wrong place.,Y,Beyond Master,Press the space bar to reveal the next words/sentence,Only some of the dictionaries were labeled incorrectly.,367|342|345|341|608|415|452|373|716|424|349|383|568|820|463|337|684,B1,next,Yes,female,31,1.5963E+12,31.82408333,none,key_press_trials[5]
2030,Did my uncle beat me by a lot of points?,Sat Aug 01 2020 19:09:57 GMT+0200 (Mitteleuropäische Sommerzeit),correct,167,5,20474,N,TRUE,370|340|313|368|557|480|417|387,N,N,No,360|328|327|331|342|336|359|515|746|604|494,filler,1.5963E+12,I enjoy playing board games with my uncle.,58,,When we tallied up the scores I discovered that he beat me by one point.,Y,Beyond Master,Press the space bar to reveal the next words/sentence,"The last time we played together, I thought I had won.",325|279|298|464|511|421|842|389|363|450|454|358|394|541|849,B1,next,Yes,female,32,1.5963E+12,31.82408333,none,key_press_trials[5]
2030,Was the bus empty during the accident?,Sat Aug 01 2020 19:09:57 GMT+0200 (Mitteleuropäische Sommerzeit),correct,167,5,20839,N,FALSE,725|509|301|284|264|338|528|349|408|347|496|544|636|370|294|334|445|577,N,N,No,352|338|308|403|522|427|476,cancel_weak,1.5963E+12,I stopped to see if I could help with the bus accident on the side of the highway.,58,,"In fact, they all were and none were critically injured.",Y,Beyond Master,Press the space bar to reveal the next words/sentence,Some of the passengers were still alive.,389|346|394|334|412|338|1143|542|546|610,B1,next,Yes,female,33,1.5963E+12,31.82408333,none,key_press_trials[5]
2030,Did I still read a book?,Sat Aug 01 2020 19:09:57 GMT+0200 (Mitteleuropäische Sommerzeit),correct,167,5,17486,N,TRUE,544|308|440|768|562|561|551|441|398|411|507,Y,Y,No,349|399|716|407|454|403|579|351|289|753,filler,1.5963E+12,"After dinner, I listen to Celtic music and read a book.",58,,,Y,Beyond Master,Press the space bar to reveal the next words/sentence,Today I listened to classic rock instead of Celtic music.,374,B1,next,Yes,female,34,1.5963E+12,31.82408333,none,key_press_trials[5]
2030,Did the manager have a meeting with any of the accountants?,Sat Aug 01 2020 19:09:57 GMT+0200 (Mitteleuropäische Sommerzeit),correct,167,5,23671,N,FALSE,515|314|365|508|724|705|468|586|488|483|424|1099,Y,Y,No,367|343|298|328|663|629|1188,cancel_strong,1.5963E+12,"This morning, I took attendance at an important meeting with the manager.",58,,"In fact, they all were in order to communicate how budget cutbacks were crippling their division.",Y,Beyond Master,Press the space bar to reveal the next words/sentence,Some of the company's accountants were there.,424|264|272|383|352|459|326|309|362|385|420|806|535|1168|791|583,B1,next,Yes,female,35,1.5963E+12,31.82408333,none,key_press_trials[5]
2030,Did I get into an accident on the highway?,Sat Aug 01 2020 19:09:57 GMT+0200 (Mitteleuropäische Sommerzeit),incorrect,167,5,23766,N,TRUE,367|362|470|325|335|396|451|1045|388|309|328|508|334|357|454|597|345|370|556,N,Y,No,335|361|346|328|354|406|343|784|413|352|338|335|622,filler,1.5963E+12,"When I was driving on the highway, a car nearly crashed into me because it was going too fast.",58,,It looked to me like a police officer was giving the driver a ticket.,Y,Beyond Master,Press the space bar to reveal the next words/sentence,"Later on, I noticed the same car on the side of the road.",294|297|294|404|327|305|348|367|615|311|346|402|518|563,B1,next,Yes,female,36,1.5963E+12,31.82408333,none,key_press_trials[5]
2030,Are there liquid nitrogen containers in the laboratory?,Sat Aug 01 2020 19:09:57 GMT+0200 (Mitteleuropäische Sommerzeit),correct,167,5,24955,N,FALSE,354|332|318|373|789|789|460|481|639|450|391|532|487|497|920,Y,Y,No,365|369|316|323|269|369|810|316|564|381|512,anaphor_weak,1.5963E+12,"To keep the laboratory well stocked, I occasionally look at which chemicals are being used.",58,,The others were normal but I decided to order more anyway.,Y,Beyond Master,Press the space bar to reveal the next words/sentence,"Today, some of the liquid nitrogen containers needed to be refilled.",366|297|315|545|490|332|401|656|356|627|894,B1,next,Yes,female,37,1.5963E+12,31.82408333,none,key_press_trials[5]
2030,Was my bookshelf sturdy?,Sat Aug 01 2020 19:09:57 GMT+0200 (Mitteleuropäische Sommerzeit),correct,167,5,20859,N,TRUE,1067|442|296|334|348|909|418|517,N,N,No,362|292|252|317|390|318|352|358|308|277|319|636|350|415|394,filler,1.5963E+12,I built a new bookshelf for my bedroom.,58,,"The next day, it fell apart again.",Y,Beyond Master,Press the space bar to reveal the next words/sentence,"It was very difficult to do, because I lost the instructions for putting it together.",347|337|318|392|339|301|579,B1,next,Yes,female,38,1.5963E+12,31.82408333,none,key_press_trials[5]
2030,Was I studying for a French language test?,Sat Aug 01 2020 19:09:57 GMT+0200 (Mitteleuropäische Sommerzeit),correct,167,5,18003,N,FALSE,517|291|297|344|861|406|296|279|250|252|484|526|297|522,N,N,No,765|344|312|365|696|659|393,anaphor_strong,1.5963E+12,"To prepare for my Spanish test, I spent hours studying the new vocabulary items.",58,,The others were irregular verbs which made the test challenging.,Y,Beyond Master,Press the space bar to reveal the next words/sentence,Some of the words were regular verbs.,356|299|447|450|354|327|444|302|340|810,B1,next,Yes,female,39,1.5963E+12,31.82408333,none,key_press_trials[5]
2030,Was I in class during the thunderstorm?,Sat Aug 01 2020 19:09:57 GMT+0200 (Mitteleuropäische Sommerzeit),correct,167,5,20437,N,TRUE,522|495|604|941|487,Y,Y,No,309|338|406|319|729|819,filler,1.5963E+12,There was a thunderstorm today.,58,,My professor became annoyed because he could not speak over the thunder.,Y,Beyond Master,Press the space bar to reveal the next words/sentence,I think that thunderstorms are romantic.,348|302|321|343|429|820|557|323|343|446|464|897,B1,next,Yes,female,40,1.5963E+12,31.82408333,none,key_press_trials[5]
2030,Did the math textbook have problems for readers to solve?,Sat Aug 01 2020 19:09:57 GMT+0200 (Mitteleuropäische Sommerzeit),correct,167,5,20612,N,FALSE,650|313|339|324|432|450|678|437|434|403|636|517,Y,Y,No,289|267|263|299|334|382|543,literal_strong,1.5963E+12,"At a friend's suggestion, I completely worked through an entire math textbook.",58,,The others were straightforward and I feel like I learned a lot.,Y,Beyond Master,Press the space bar to reveal the next words/sentence,Only some of its problems were difficult.,298|312|287|343|672|420|344|314|373|692|479|535,B1,next,Yes,female,41,1.5963E+12,31.82408333,none,key_press_trials[5]
2030,Did eating carrots give me night vision?,Sat Aug 01 2020 19:09:57 GMT+0200 (Mitteleuropäische Sommerzeit),correct,167,5,21155,N,TRUE,1065|300|320|289|340|512|497|326|314|298|293|322,N,N,No,322|297|698|804|428|360|485|346|357|275|389|361|508|638,filler,1.5963E+12,I have often heard that carrots help you see in the dark.,58,,"The carrots must have failed, because I couldn’t see anything.",Y,Beyond Master,Press the space bar to reveal the next words/sentence,I once ate an entire bag of carrots and then turned the light off.,341|339|316|409|355|1271|345|636|466|601,B1,next,Yes,female,42,1.5963E+12,31.82408333,none,key_press_trials[5]
2030,Has my portfolio lost value this year?,Sat Aug 01 2020 19:09:57 GMT+0200 (Mitteleuropäische Sommerzeit),correct,167,5,21331,N,FALSE,513|312|421|460|358|313|315|388|310|284|670|487|396|723,Y,Y,No,412|369|362|404|555|838|494,literal_weak,1.5963E+12,"While eating breakfast, I had little time to skim the stock prices from yesterday.",58,,The others were relatively steady but my portfolio was still down for the year.,Y,Beyond Master,Press the space bar to reveal the next words/sentence,Only some of my stocks went up.,478|302|338|300|407|410|478|436|685|450|370|305|312|973,B1,next,Yes,female,43,1.5963E+12,31.82408333,none,key_press_trials[5]
2030,Do I write my assignments in a notebook?,Sat Aug 01 2020 19:09:57 GMT+0200 (Mitteleuropäische Sommerzeit),correct,167,5,16426,N,TRUE,429|344|359|381|466|406|354|372|414|675,N,N,No,568|368|838|343|564|432|300|312|447|719|407|336|469,filler,1.5963E+12,I use Post-It Notes to keep track of my homework.,58,,,Y,Beyond Master,Press the space bar to reveal the next words/sentence,"Sometimes I lose them, but the adhesive helps them stick to my notes.",1115,B1,next,Yes,female,44,1.5963E+12,31.82408333,none,key_press_trials[5]
2030,Did my high_school football team win every game?,Sat Aug 01 2020 19:09:57 GMT+0200 (Mitteleuropäische Sommerzeit),correct,167,5,22674,N,FALSE,728|281|337|363|556|504|466|317|311|363|383|517|525|384|373|310|961,N,N,No,501|334|350|418|447|936,cancel_weak,1.5963E+12,I ran into a friend who started telling how my old high_school football team did last season.,58,,"In fact, they all were which made the games stressful to watch.",Y,Beyond Master,Press the space bar to reveal the next words/sentence,Some of their losses were close.,385|307|500|370|477|454|354|332|539|534|638|931,B1,next,Yes,female,45,1.5963E+12,31.82408333,none,key_press_trials[5]
2030,Do I like Led Zeppelin?,Sat Aug 01 2020 19:09:57 GMT+0200 (Mitteleuropäische Sommerzeit),correct,167,5,14793,N,TRUE,460|339|356|307|467|371|691|477,Y,Y,No,455|318|305|368|346|406|356|353|555|602,filler,1.5963E+12,Yesterday I went to a Led Zeppelin concert.,58,,They played for about an hour.,Y,Beyond Master,Press the space bar to reveal the next words/sentence,I only go to see bands that I really like.,432|429|404|577|503|761,B1,next,Yes,female,46,1.5963E+12,31.82408333,none,key_press_trials[5]
2030,Did the bowling ball leave any of the steps undamaged?,Sat Aug 01 2020 19:09:57 GMT+0200 (Mitteleuropäische Sommerzeit),incorrect,167,5,23760,N,FALSE,369|412|492|527|520|795|485|447|415|590|702|374|553,N,Y,No,525|374|326|379|449|557,cancel_strong,1.5963E+12,I examined the damage after I dropped a bowling ball down the stairs.,58,,"In fact, they all were so they will require extensive repairs.",Y,Beyond Master,Press the space bar to reveal the next words/sentence,Some of the steps were damaged.,603|323|326|310|350|403|374|395|512|501|686,B1,next,Yes,female,47,1.5963E+12,31.82408333,none,key_press_trials[5]
2030,Did I see a doctor after I started feeling ill?,Sat Aug 01 2020 19:09:57 GMT+0200 (Mitteleuropäische Sommerzeit),correct,167,5,20518,N,TRUE,356|320|342|336|345|379|336|386|472|353|424|440|391|458|505,Y,Y,No,305|335|369|345|309|343|346|349|391|494|411,filler,1.5963E+12,"After I got back from my trip to the equator, I started feeling very ill.",58,,"Luckily, there are drugs which effectively treat it, and I am now healthy.",Y,Beyond Master,Press the space bar to reveal the next words/sentence,My doctor told me I had contracted a rare tropical disease.,380|303|313|348|372|398|376|332|386|355|325|367|571,B1,next,Yes,female,48,1.5963E+12,31.82408333,none,key_press_trials[5]
2030,Did the painting conform to my expectations?,Sat Aug 01 2020 19:09:57 GMT+0200 (Mitteleuropäische Sommerzeit),correct,167,5,19654,N,TRUE,384|333|325|373|353|327|380|524,N,N,No,299|361|554|287|331|352|323|289|351|371|339|313|309|293|397|434,filler,1.5963E+12,Last summer I went to Chicago on vacation.,58,,It was much bigger than I thought it would be.,Y,Beyond Master,Press the space bar to reveal the next words/sentence,"When I was there, I visited the Art Institute and saw a painting by Georges Seurat.",338|305|349|360|404|449|355|473|414|527,B1,next,Yes,female,49,1.5963E+12,31.82408333,none,key_press_trials[5]
2022,Did the bowling ball leave any of the steps undamaged?,Sat Aug 01 2020 14:46:55 GMT+0200 (Mitteleuropäische Sommerzeit),incorrect,167,1,13840,N,FALSE,688|392|344|288|248|256|264|344|344|264|272|376,N,Y,No,176|200|176|200|160|184|320,literal_weak,1.59629E+12,I heard that my friend dropped a bowling ball down the stairs.,26,,The others were fine so the repairs shouldn't be too expensive.,Y,,Press the spacebar to reveal the next words/sentence.,Only some of the steps were damaged.,169|176|216|128|160|200|192|199|185|191|201,,next,Yes,male,1,1.59629E+12,13.46121667,none,key_press_trials[1]
2022,Does the radio play Pink Floyd?,Sat Aug 01 2020 14:46:55 GMT+0200 (Mitteleuropäische Sommerzeit),correct,167,1,15701,N,TRUE,360|200|161|215|376|303,N,N,No,176|288|200|216|288|248|200|176|183,filler,1.59629E+12,I love to listen to music.,26,,"The radio doesn't play music I like, so I listen to my iPod.",Y,,Press the spacebar to reveal the next words/sentence.,I could spend hours just listening to Pink Floyd.,216|216|192|199|200|193|199|184|177|183|177|199|217,,next,Yes,male,2,1.59629E+12,13.46121667,none,key_press_trials[1]
2022,Had all of my favorite rides been removed from Disney World?,Sat Aug 01 2020 14:46:55 GMT+0200 (Mitteleuropäische Sommerzeit),correct,167,1,13390,N,FALSE,201|544|247|232|329|289|214|177|160|183|192|217|201|175|200,N,N,No,176|199|216|176|240|192|160|240,cancel_strong,1.59629E+12,"When I entered Disney World, I asked about the status of each of the rides.",26,,"In fact, they all were since they were still popular.",Y,,Press the spacebar to reveal the next words/sentence.,Some of my favorite rides were still running.,248|200|217|216|215|201|192|216|255|304,,next,Yes,male,3,1.59629E+12,13.46121667,none,key_press_trials[1]
2022,Did the newspaper keep the floor clean?,Sat Aug 01 2020 14:46:55 GMT+0200 (Mitteleuropäische Sommerzeit),correct,167,1,12431,N,TRUE,216|248|216|184|216|216|178|198|200|248|232,Y,Y,No,185|175|184|192|200|256|216|176|216|248|240|288|249,filler,1.59629E+12,"When I was babysitting my cousin, we did an art project.",26,,"We still got paint on our clothes, though.",Y,,Press the spacebar to reveal the next words/sentence.,We spread newspaper on the floor so it wouldn't get paint on it.,199|217|191|200|272|288|248|464,,next,Yes,male,4,1.59629E+12,13.46121667,none,key_press_trials[1]
2022,Has my portfolio lost value this year?,Sat Aug 01 2020 14:46:55 GMT+0200 (Mitteleuropäische Sommerzeit),correct,167,1,11568,N,FALSE,304|216|186|190|216|185|175|184|176|184|232|175|185|232|200|289,Y,Y,No,176|185|191|200|216|201,anaphor_strong,1.59629E+12,"While eating breakfast, I had lots of time to pore over the stock prices from yesterday.",26,,The others were relatively steady but my portfolio was still down for the year.,Y,,Press the spacebar to reveal the next words/sentence.,Some of my stocks went up.,200|217|216|159|216|200|216|201|231|192|256|232|272|288,,next,Yes,male,5,1.59629E+12,13.46121667,none,key_press_trials[1]
2022,Did I get into an accident on the highway?,Sat Aug 01 2020 14:46:55 GMT+0200 (Mitteleuropäische Sommerzeit),correct,167,1,13479,N,TRUE,344|176|161|183|160|160|160|184|144|144|160|160|184|177|447|184|216|304|248,N,N,No,192|200|176|185|199|192|200|184|193|199|200|177|215,filler,1.59629E+12,"When I was driving on the highway, a car nearly crashed into me because it was going too fast.",26,,It looked to me like a police officer was giving the driver a ticket.,Y,,Press the spacebar to reveal the next words/sentence.,"Later on, I noticed the same car on the side of the road.",216|240|192|217|183|193|199|200|216|272|72|320|200|288,,next,Yes,male,6,1.59629E+12,13.46121667,none,key_press_trials[1]
2022,Did the math textbook have problems for readers to solve?,Sat Aug 01 2020 14:46:55 GMT+0200 (Mitteleuropäische Sommerzeit),correct,167,1,9503,N,FALSE,304|216|185|175|201|199|192|200|200|176|216|216|184,Y,Y,No,200|184|176|200|176|200,cancel_weak,1.59629E+12,"At a friend's suggestion, I read a review of a new math textbook.",26,,"In fact, they all were but it received a positive review anyway.",Y,,Press the spacebar to reveal the next words/sentence.,Some of its problems were difficult.,176|200|200|177|183|216|176|201|231|232|216|288,,next,Yes,male,7,1.59629E+12,13.46121667,none,key_press_trials[1]
2022,Did the mouse find a way into the plastic container?,Sat Aug 01 2020 14:46:55 GMT+0200 (Mitteleuropäische Sommerzeit),correct,167,1,13959,N,TRUE,176|216|200|448|272|479|529|305|287,Y,Y,No,192|288|232|200|232|200|216|248|215|201|216|392|200|273|983|256|344,filler,1.59629E+12,I have seen a mouse living in my apartment.,26,,,Y,,Press the spacebar to reveal the next words/sentence.,"Yesterday, it ate a bar of chocolate, even though the candy was in a closed plastic container.",216,,next,Yes,male,8,1.59629E+12,13.46121667,none,key_press_trials[1]
2022,Did my parents save money by entirely avoiding expensive hotels?,Sat Aug 01 2020 14:46:55 GMT+0200 (Mitteleuropäische Sommerzeit),correct,167,1,13407,N,FALSE,288|232|176|200|288|249|215|200|176|199|185|176,N,N,No,192|200|160|160|184|232,anaphor_weak,1.59629E+12,"When they returned, my family told me about their trip to Europe.",26,,The rest were cheap despite my family's love for luxurious holidays.,Y,,Press the spacebar to reveal the next words/sentence.,Some of their hotels were expensive.,327|216|192|200|200|232|248|232|328|288|376,,next,Yes,male,9,1.59629E+12,13.46121667,none,key_press_trials[1]
2022,Do I like Led Zeppelin?,Sat Aug 01 2020 14:46:55 GMT+0200 (Mitteleuropäische Sommerzeit),correct,167,1,9359,N,TRUE,320|216|184|200|176|201|191|328,Y,Y,No,191|256|232|233|239|192|200|176|200|232,filler,1.59629E+12,Yesterday I went to a Led Zeppelin concert.,26,,They played for about an hour.,Y,,Press the spacebar to reveal the next words/sentence.,I only go to see bands that I really like.,184|216|177|215|304|304,,next,Yes,male,10,1.59629E+12,13.46121667,none,key_press_trials[1]
2022,Was I studying for a French language test?,Sat Aug 01 2020 14:46:55 GMT+0200 (Mitteleuropäische Sommerzeit),incorrect,167,1,10799,N,FALSE,200|200|192|240|192|200|104|216|144|184|232|304|288|256,N,Y,No,184|177|183|200|136|240|264|272,literal_strong,1.59629E+12,"To prepare for my Spanish test, I spent hours studying the new vocabulary items.",26,,The others were irregular verbs which made the test challenging.,Y,,Press the spacebar to reveal the next words/sentence.,Only some of the words were regular verbs.,200|201|214|178|199|160|216|200|248|216,,next,Yes,male,11,1.59629E+12,13.46121667,none,key_press_trials[1]
2022,Did the people at the bake sale think my brownies were disgusting?,Sat Aug 01 2020 14:46:55 GMT+0200 (Mitteleuropäische Sommerzeit),correct,167,1,14647,N,TRUE,216|232|192|216|199|232|216|216|216|216|200|216|232|201,N,N,No,216|200|176|200|200|192|216|201|199|192|240,filler,1.59629E+12,My daughter asked me to make brownies for the bake sale at her school.,26,,They were so popular that some of the other parents asked me for the recipe.,Y,,Press the spacebar to reveal the next words/sentence.,"At the sale, my brownies sold out during the first hour.",216|216|200|216|192|200|200|192|216|256|288|264|256|272|280,,next,Yes,male,12,1.59629E+12,13.46121667,none,key_press_trials[1]
2022,Were any of my predictions confirmed by my research?,Sat Aug 01 2020 14:46:55 GMT+0200 (Mitteleuropäische Sommerzeit),correct,167,1,12775,N,FALSE,344|232|200|232|272|233|271|232|216|199|233|160|304|256|289|247,Y,Y,No,248|200|232|248|216|240|232,literal_weak,1.59629E+12,"To check on the progress of my research, I quickly scanned the experiments in the lab.",26,,The rest were wrong so my theory must be mistaken.,Y,,Press the spacebar to reveal the next words/sentence.,Only some of my predictions were correct.,273|271|232|216|272|248|248|272|288|344,,next,Yes,male,13,1.59629E+12,13.46121667,none,key_press_trials[1]
